time,seconds_elapsed,z,y,x
1701290496076652000,0.038652099609375,-0.04407411952614784,-0.2242313647121191,0.0928916341871023
1701290496086727200,0.04872705078125,0.019515724591910838,-0.29417174690067766,0.1269914721876383
1701290496096802000,0.058802001953125,0.0802519328445196,-0.18660627519488335,0.17583879746496675
1701290496106878000,0.0688779296875,0.07886193979084491,-0.027048165923357008,0.0629763883948326
1701290496116953000,0.078953125,-0.05257014519274234,0.10841828914284705,0.028951369196176528
1701290496127028000,0.089028076171875,-0.1788648672878742,0.01270166066288948,-0.0550076014727354
1701290496137104100,0.099104248046875,-0.21203443870097397,-0.0085310969799757,-0.0805354259610176
1701290496147179000,0.109178955078125,-0.2656768893003464,-0.5987813011854887,-0.025770401072502135
1701290496157254000,0.11925390625,-0.4459782191321254,0.3494967437595129,-0.09396306281089782
1701290496167330000,0.129330078125,0.24354659829586742,-0.13557225352823735,0.02875730792880058
1701290496177405200,0.1394052734375,0.57034694160074,-0.41473756995499134,0.1862286740541458
1701290496187480000,0.14947998046875,0.24655279437452554,-0.36332419358193874,0.1401753634095192
1701290496197555000,0.159554931640625,-0.03567483223229646,-0.5669482390731573,-0.07347673962116241
1701290496207631000,0.169631103515625,-0.09716127433031797,-0.726891548269987,-0.11989479192495345
1701290496217706000,0.1797060546875,-0.007225567339360714,-0.8573439745664596,-0.05195055198967456
1701290496227781000,0.189781005859375,-0.014325462472438811,-0.9356091175079345,-0.041339726126194
1701290496237857000,0.19985693359375,-0.07755904049873352,-0.9384586617201566,-0.08657645969092845
1701290496247932000,0.209931884765625,0.005663140328228474,-1.0846885028630495,-0.13686989212334155
1701290496258007000,0.220007080078125,0.21823563142865895,-1.2462310639500618,-0.3591986380845308
1701290496268083200,0.230083251953125,0.2768921107977629,-1.2746966954559087,-0.5298913048326969
1701290496278157800,0.24015771484375,0.12906769393980502,-1.0484347016990183,-0.44392508599460123
1701290496288233000,0.25023291015625,0.3291869461804628,-0.9420447035133838,-0.3795207106232643
1701290496298309000,0.26030908203125,0.8441162442028523,-0.8396224399149418,-0.6240928525745868
1701290496308384300,0.27038427734375,0.7206818799749016,-0.4489595730304718,-0.8844330570220946
1701290496318459100,0.280459228515625,0.3805243347078562,-0.3567038986593485,-1.2206067933499813
1701290496328534000,0.290533935546875,0.0948310778170824,-0.3493611346811056,-1.1621423294216393
1701290496338610200,0.300610107421875,-0.23250556432157754,-1.1300491550683975,0.05343523758947849
1701290496348685000,0.31068505859375,0.08280863159000873,-0.8625789526104927,0.7368389417886734
1701290496358760200,0.32076025390625,0.2472762863434851,0.11496551882922648,0.5764613328278064
1701290496368836000,0.330836181640625,0.04314312228634953,0.22847324006557462,0.22901626090109348
1701290496378911000,0.340910888671875,-0.040333033301681274,-0.06294891586601734,-0.28328853383660313
1701290496388986000,0.350986083984375,-0.07106558682620524,-0.5403969167560339,-0.616046908763051
1701290496399062300,0.361062255859375,0.08002893774360417,-0.7285194417327642,-0.8615098620742558
1701290496409137000,0.371136962890625,0.3704907242104411,-0.9063608111917972,-0.998833927705884
1701290496419212000,0.3812119140625,0.5567898331522941,-0.9766063138067722,-0.9034826254069804
1701290496429288200,0.3912880859375,0.41707755720987916,-0.8708908538818358,-0.7874041768997907
1701290496439363000,0.401363037109375,-0.00007642623707652092,-0.7447294027775525,-0.709565734937787
1701290496449438200,0.411438232421875,-0.4204014409355819,-0.5014800338625908,-0.7523252647340297
1701290496459514000,0.42151416015625,-0.5226515628375112,-0.48818800609111784,-0.7831044338792562
1701290496469589000,0.431589111328125,-0.3491667811527848,-0.6561205604761838,-0.9977776966512203
1701290496479664000,0.4416640625,-0.053475569599866865,-0.6761439423292875,-1.0364636933982372
1701290496489740000,0.451739990234375,0.18939926691427825,-0.2544189977049827,-1.193191547679901
1701290496499815000,0.46181494140625,-0.0990780677370727,1.2779735251694917,-0.9342249696731567
1701290496509890000,0.47189013671875,-0.2535273095622659,1.7505699943751096,-0.370151409253478
1701290496519965200,0.481965087890625,0.16128595597743986,-0.7804092034459114,0.22056348985433577
1701290496530041000,0.492041015625,1.4732272172003984,-1.9559873530238865,-0.9331243149548768
1701290496540116000,0.502115966796875,1.571087725841254,-0.8889391362696886,-1.876747812092304
1701290496550191000,0.512191162109375,0.29521394942998885,0.3321031258881092,-1.445667010101676
1701290496560267000,0.52226708984375,-1.3683061225235462,1.3728934503138064,-0.4868815996676683
1701290496570342100,0.532342041015625,-2.088553410473466,1.72483232652843,0.23300737636387348
1701290496580417300,0.542417236328125,-1.5171750799983739,1.3737649724513292,0.9024439300090074
1701290496590493000,0.552492919921875,-0.8743114029150456,0.9977940632641314,1.845175446742773
1701290496600568000,0.562568115234375,-0.32863917610459026,0.544363482299447,2.7629063777327536
1701290496610643200,0.572643310546875,0.06268712312467396,-0.6678945849001408,2.6552137725159524
1701290496620718800,0.58271875,0.14973229630589485,-1.003832174384594,2.773763871833682
1701290496630794000,0.5927939453125,0.12324702496230601,-0.5753302829712629,2.9255279662281275
1701290496640869000,0.602869140625,0.22550737599730492,-0.20247896710932253,2.6395219901263713
1701290496650945300,0.6129453125,0.33476620761752124,0.1638771415144205,2.058338304951787
1701290496661020200,0.623020263671875,0.350457149756886,0.7742904283046722,1.3726412291184067
1701290496671095000,0.633094970703125,0.2545803257465362,1.4913760373532772,0.483452502001822
1701290496681171200,0.643171142578125,-0.1172176451375708,2.311855969902873,-0.21183570125848053
1701290496691246000,0.65324609375,-0.5217781410038471,2.938676786136627,-0.4681362749263644
1701290496701321200,0.6633212890625,-0.6808230400562286,3.2448890994429584,-0.3247919260919094
1701290496711396000,0.67339599609375,-0.7217518472939729,3.2076153075814244,0.03625146307647228
1701290496721472000,0.683471923828125,-0.7055103220671415,2.8742694881558415,0.2826408835828304
1701290496731547100,0.693547119140625,-0.5399281302005052,2.58984055211246,0.6566153582558035
1701290496741622000,0.7036220703125,-0.47499012287650255,2.410182488620281,0.8619660814091563
1701290496751698000,0.713697998046875,-0.4990864167243242,2.3689742799192666,1.1250807190060614
1701290496761773000,0.72377294921875,-0.5108487507104873,2.3282675909996033,1.0759621755719184
1701290496771848000,0.733847900390625,-0.37118309038877484,2.2116765167951584,0.565356001445651
1701290496781924000,0.743924072265625,-0.19636662170886993,1.9714181463897227,-0.027143442991375923
1701290496791999000,0.7539990234375,0.004841046823002398,0.8841659305185079,-0.698440822072327
1701290496802073900,0.764073974609375,0.14922383532710373,-0.8606605517685413,-1.5726891696885228
1701290496812150000,0.77414990234375,0.4055927249908447,-3.4675241348743437,-2.6989608520448205
1701290496822225200,0.78422509765625,0.17203301197383553,-4.040080276957154,-2.5292536892026662
1701290496832300300,0.79430029296875,-0.38706805726289745,-3.1536364646345376,-1.1318445140525697
1701290496842376000,0.8043759765625,-0.800492206531763,-1.457666075453162,0.5107487974673509
1701290496852451000,0.814451171875,-0.7664730325520038,-0.003869534909725189,1.109303596420586
1701290496862526200,0.824526123046875,-0.2519248428016901,0.2924836476832628,0.6538008853569627
1701290496872602000,0.83460205078125,0.2772223291328177,0.02009820065498352,0.17320727991759777
1701290496882677000,0.844677001953125,0.5034071660002694,0.059957917356491086,0.2148261152461171
1701290496892752100,0.854752197265625,0.43699557899236674,0.2077472629010677,0.3982707115396857
1701290496902828000,0.864828125,0.1170043677130714,0.2700087810248136,0.46104836249202485
1701290496912903200,0.874903076171875,-0.38425939305033535,0.018085107266902923,0.33321985495835543
1701290496922978000,0.88497802734375,-0.5810498661944642,-0.4597194519758224,0.2512047118335962
1701290496933053200,0.89505322265625,-0.3951099094212055,-0.7534609907656907,0.4379708537653088
1701290496943129300,0.90512939453125,-0.1006699035057798,-0.7620745053321123,0.7577823610961437
1701290496953204200,0.915204345703125,0.04709609769582748,-0.6151625271439551,0.9018392421141266
1701290496963279400,0.925279296875,0.1115343936030753,-0.35162849509119987,0.677875588427484
1701290496973355300,0.935355224609375,0.18592994683589786,-0.19622633645534515,0.23223113129436967
1701290496983430100,0.94543017578125,0.11925883210897445,0.0011439093381166458,-0.11026537831425666
1701290496993505300,0.95550537109375,0.019926899208687246,0.232661339405179,-0.2757064081445336
1701290497003581200,0.965581298828125,-0.006174889242649078,0.5744347954362631,-0.4019844713658094
1701290497013656000,0.975656005859375,-0.08713818522691726,0.8085381503432989,-0.715990799549222
1701290497023731200,0.985731201171875,-0.2860386910612695,0.7256324881196021,-0.9645192779108881
1701290497033807400,0.995807373046875,-0.18407586166812107,-0.18800445155501364,-0.4544549555763602
1701290497043882200,1.00588232421875,0.033501890373695636,-0.3845125275611877,-0.09061521368771791
1701290497053957000,1.01595703125,-0.007453229482239112,-0.1794704319655895,-0.3723600252136588
1701290497064033300,1.026033203125,-0.11970774492025375,0.09443301841020584,-0.3766536307543516
1701290497074108200,1.036108154296875,-0.3185059776902199,0.20863398260772226,-0.21228695215731858
1701290497084183300,1.046183349609375,-0.38085283600986003,0.1890349636465311,-0.16278496236354112
1701290497094258400,1.056258544921875,-0.20616554666757583,0.020338439151644707,-0.214725577481091
1701290497104334000,1.066333984375,-0.13098726382553577,-0.07766483896076679,-0.1938026164397597
1701290497114409200,1.0764091796875,-0.19183423897624013,-0.07509002003669739,-0.10958441031277179
1701290497124484400,1.086484375,-0.21185469821989536,0.043590719923377035,-0.02653700153082609
1701290497134560000,1.09656005859375,-0.1615419765651226,0.09521744678616523,0.09947802684009074
1701290497144635100,1.10663525390625,-0.07999415869116783,0.05006137724220752,0.20553426302671432
1701290497154710300,1.116710205078125,-0.04000818526148796,-0.011812018346786498,0.3199658211097121
1701290497164786200,1.1267861328125,-0.04889291798472404,-0.09079144703745841,0.4155591154709458
1701290497174861300,1.136861328125,-0.02666588860750198,-0.11838204927444457,0.4861284432128071
1701290497184936200,1.146936279296875,-0.02026420487165451,-0.07096446453928947,0.5181497213736176
1701290497195012000,1.15701220703125,-0.025884967362880706,-0.00511690462231636,0.5011874806568026
1701290497205087200,1.167087158203125,-0.07357844642996787,-0.00253624047935009,0.38228959081470965
1701290497215162400,1.177162353515625,-0.09201426683068276,-0.10532909095585345,0.2911901007413864
1701290497225238000,1.187238037109375,-0.04554477660059929,-0.18096505443751812,0.22876696231514215
1701290497235313200,1.197313232421875,0.0645452451467514,-0.17368775691092014,0.25937691237330435
1701290497245388300,1.20738818359375,0.19750176321864127,-0.15689152041077614,0.3154047968044877
1701290497255464200,1.217464111328125,0.2656932559132576,-0.08115326559841632,0.3443430142581463
1701290497265539000,1.2275390625,0.1964016930222511,-0.08017243786752223,0.3280167333573103
1701290497275614200,1.2376142578125,0.07424714860492386,-0.12858604790270328,0.3585518646135926
1701290497285689000,1.247689208984375,0.054407279225718225,-0.2201572471410036,0.3700143388703465
1701290497295765200,1.25776513671875,0.12255202843546867,-0.26336978140175343,0.35765929968804117
1701290497305840000,1.267840087890625,0.19755787732005117,-0.19526362890303134,0.36139907073825595
1701290497315915000,1.2779150390625,0.22952304137945173,-0.09770692551434039,0.3092980043619871
1701290497325991200,1.2879912109375,0.15956044735908506,-0.0317757789671421,0.19351707749664782
1701290497336066300,1.29806640625,0.044493797109788284,-0.04107026153504848,0.08831775040030479
1701290497346141200,1.30814111328125,-0.025454768385225906,-0.07514321152865887,0.010408873550593853
1701290497356217000,1.318217041015625,0.003082786712516099,-0.01949380502104759,-0.04252835138887167
1701290497366292200,1.328292236328125,0.03545475974082946,0.014066519275307655,-0.059196285334229465
1701290497376367000,1.3383671875,0.06062427231073379,-0.009420739296078682,-0.046238604083657264
1701290497386443300,1.348443359375,0.09699320602072402,-0.018706454035639763,-0.08165800025016069
1701290497396518100,1.35851806640625,0.12238836230635643,0.024801263779401776,-0.12068944943398237
1701290497406593000,1.368593017578125,0.1280231533229351,0.04406593621969223,-0.09727028766274452
1701290497416669200,1.378669189453125,0.1071989582146518,0.07909224141538143,-0.07765724017620086
1701290497426744300,1.388744384765625,0.04812951413048431,0.08408815000653266,-0.14115999053269623
1701290497436819200,1.398819091796875,0.010335516053438186,0.0900777458101511,-0.23372487698346375
1701290497446895000,1.40889501953125,-0.013232388272415846,0.08316168281137942,-0.30196897664815187
1701290497456970200,1.41897021484375,-0.026428554453980176,0.08600713537037372,-0.3365466612935066
1701290497467045400,1.42904541015625,-0.015681534990202636,0.09283844269514083,-0.3028442981779575
1701290497477120300,1.439120361328125,0.029293880757223813,0.06661386811435223,-0.2824740025833249
1701290497487196200,1.449196044921875,0.06844515692843124,0.06180325296223163,-0.2744850496560335
1701290497497271300,1.459271240234375,0.05031915139555931,0.0503892940223217,-0.33192689253836866
1701290497507346200,1.46934619140625,-0.03451479374328628,0.04411211344897747,-0.29690321769118305
1701290497517422000,1.479422119140625,-0.08985034852875397,0.05006079272031784,-0.2232452762842178
1701290497527497200,1.489497314453125,-0.08805473381625488,0.10138006106913089,-0.1608782519593835
1701290497537572000,1.499572021484375,-0.043806408500671384,0.14945874006152152,-0.10815583881437778
1701290497547648300,1.509648193359375,0.03002687120689079,0.11179331853389739,-0.11763678386509417
1701290497557723400,1.519723388671875,0.11208205408109351,0.061408700686693185,-0.25405659413337706
1701290497567798000,1.529798095703125,0.06703413935303687,0.02194821243584156,-0.34355215614140033
1701290497577874200,1.539874267578125,-0.09803718038201331,0.05704992095530033,-0.3788391580998897
1701290497587949300,1.54994921875,-0.1999778162096627,0.09230769681930541,-0.31926673292964697
1701290497598024200,1.560024169921875,-0.16327449944615363,0.03915770591199398,-0.2145081353381276
1701290497608100000,1.57010009765625,-0.0023065051103942093,0.0008896423161029815,-0.11184621776491403
1701290497618175200,1.58017529296875,0.12907061654925345,-0.03966799352169036,0.002765373060107231
1701290497628250000,1.59025,0.17817160606039686,-0.07552841145396232,0.07441898890733718
1701290497638325200,1.6003251953125,0.08095275632394477,-0.05202186366021633,0.041190380783379076
1701290497648401200,1.610401123046875,-0.10600532798329368,-0.025319734695553778,0.013529343658685683
1701290497658476000,1.62047607421875,-0.16346972975730895,0.027206571355462072,-0.027612229546904562
1701290497668551200,1.63055126953125,-0.1259200618301518,0.06607376988828181,-0.11082885741591453
1701290497678627300,1.64062744140625,-0.05859950675116852,0.06859189018905162,-0.17841478543281555
1701290497688702200,1.6507021484375,-0.03970425214515999,0.07049567798376083,-0.20589900468587874
1701290497698777000,1.660777099609375,-0.08388709274278953,0.03952361661493778,-0.180732122464478
1701290497708853200,1.670853271484375,-0.10469134104158728,0.048525838238000864,-0.08618746037334203
1701290497718928100,1.68092822265625,-0.08116316593792289,0.05064706817567348,-0.025618425381183623
1701290497729003300,1.691003173828125,-0.042402386921644206,0.06732113960087299,-0.058764031396806235
1701290497739079200,1.7010791015625,0.005529577076435089,0.048453942045569416,-0.12170827108770609
1701290497749154000,1.711154052734375,0.030018687900435177,0.04794657704532146,-0.21393355032056569
1701290497759229200,1.721229248046875,0.0026408516312949356,0.07330255209803581,-0.2978761543765664
1701290497769305300,1.731305419921875,-0.09039280310869216,0.08210778984427451,-0.28390900382250545
1701290497779380000,1.7413798828125,-0.14777886068318039,0.08321896595656872,-0.14686317061036824
1701290497789455000,1.751455078125,-0.12441435170862823,0.12360767496824264,-0.0721069125726819
1701290497799530200,1.7615302734375,0.0060930379117839035,0.08305529982745646,-0.15174422065019608
1701290497809606100,1.771606201171875,0.09409633380174637,-0.0640881490290165,-0.19382453601062297
1701290497819681300,1.781681396484375,0.12533082723272965,-0.15716916830837727,-0.18537205722481012
1701290497829756200,1.791756103515625,0.10949262210978195,-0.10285831692814826,-0.14049246653467415
1701290497839832300,1.801832275390625,0.016546609120629725,0.017888123390078545,-0.12002221769690513
1701290497849907200,1.8119072265625,-0.06196869092332199,0.1109650510162115,-0.08536942198872566
1701290497859982300,1.821982421875,-0.07782441343665122,0.1380003574579954,-0.08334960659891366
1701290497870058200,1.832058349609375,-0.07451486876355484,0.1281225220441818,-0.10938625739216803
1701290497880133000,1.842133056640625,-0.07119825502885505,0.07535831558406353,-0.13621785795539618
1701290497890208300,1.852208251953125,-0.06430089673055335,0.03798632404506206,-0.13354250126630068
1701290497900284400,1.862284423828125,-0.0780652364552021,-0.014749240842461585,-0.03964285908043384
1701290497910359000,1.872359130859375,-0.07102176595078781,-0.000054945057630538935,0.06293254925310611
1701290497920434200,1.88243408203125,0.0007329904496669769,0.04514262554049492,0.10919336516857146
1701290497930509000,1.892509033203125,0.03804185362458229,0.04906593646407127,0.14514789112508297
1701290497940584000,1.902583984375,0.04780568900359794,0.0015326163947582245,0.1813707126289606
1701290497950659000,1.9126591796875,0.06779518685340881,-0.07747370030283927,0.20228461358100175
1701290497960735000,1.92273486328125,0.06210897617684677,-0.12685878571867942,0.2011257989346981
1701290497970809900,1.932809814453125,0.014223773929942398,-0.12060381697714329,0.22655279339700937
1701290497980885000,1.942885009765625,-0.03593404942406341,-0.13248247081935405,0.28186083912104365
1701290497990959900,1.9529599609375,0.03218377524614334,-0.18096739252507685,0.2714452435687184
1701290498001036000,1.9630361328125,0.087826733746659,-0.20932839461266994,0.2750225175336003
1701290498011111000,1.97311083984375,0.09759058739198372,-0.21172727244794368,0.2306786411553621
1701290498021185800,1.983185791015625,0.05774959365725517,-0.16753449497818945,0.17125410002321004
1701290498031262000,1.993261962890625,-0.008642740660905838,-0.16802841597497462,0.18468086009025572
1701290498041337000,2.003337158203125,-0.04291557887447998,-0.13744447714090346,0.22350831113457678
1701290498051412000,2.013411865234375,0.01020809028148651,-0.08969254588484764,0.23475451229214667
1701290498061487900,2.02348779296875,0.055706086864601816,-0.019599018961191175,0.22650252451449632
1701290498071563000,2.03356298828125,0.09875378595246001,0.037325229787826535,0.19736440057456492
1701290498081638100,2.04363818359375,0.08882511540055274,-0.0401414562523365,0.13901654876321554
1701290498091713800,2.0537138671875,0.052570747980941086,-0.10517185456752777,0.08315496080964803
1701290498101789000,2.063788818359375,0.06224805585397407,-0.07189502338767051,0.05308744706511497
1701290498111864000,2.073864013671875,0.041180736172199243,-0.0048562078595161436,-0.06367576883584261
1701290498121940000,2.08393994140625,-0.036233342897892,0.05542436558008194,-0.11589958480894565
1701290498132015000,2.09401513671875,-0.10792027649283409,0.09218377817869186,-0.195448922342062
1701290498142090000,2.104090087890625,-0.11472880573021248,0.0855202286362648,-0.246165840883553
1701290498152166000,2.114165771484375,-0.07275425229920074,0.07163081949353217,-0.25482056424319743
1701290498162241000,2.124240966796875,0.006319832404982299,0.028909283620119092,-0.2603857971549034
1701290498172316200,2.134316162109375,0.040051421615015716,0.009418985730409621,-0.2716483649253845
1701290498182391000,2.14439111328125,0.018813421541452408,0.03939794440865516,-0.2904115175843239
1701290498192467000,2.154467041015625,-0.04139467118382454,0.08627367735207081,-0.28721067571640013
1701290498202542000,2.1645419921875,-0.097584796972014,0.09680091658532619,-0.33000936847925183
1701290498212617000,2.174616943359375,-0.14083587314486504,0.07720949640870094,-0.3321434578984976
1701290498222692900,2.18469287109375,-0.08684473697198554,0.05792027404904365,-0.24610475834608075
1701290498232768000,2.19476806640625,0.021036942809820176,0.05697919380664825,-0.16530074457675217
1701290498242843000,2.2048427734375,0.10431026930212974,0.040462943291664125,-0.1185179506137967
1701290498252919000,2.2149189453125,0.097390717438329,0.04552548737823963,-0.1340057348638773
1701290498262994200,2.224994140625,-0.028973562761675564,0.08831365874707699,-0.175640644544363
1701290498273068800,2.23506884765625,-0.12819032658338547,0.11162380718588828,-0.18510756106972692
1701290498283145000,2.24514501953125,-0.1758896508693695,0.07235504211485386,-0.13968378050029276
1701290498293220000,2.25522021484375,-0.15000702159404752,-0.016127543458342553,-0.03918225583136081
1701290498303295000,2.265294921875,-0.040537762093544004,-0.07179331657886505,0.07715221326351165
1701290498313371000,2.275370849609375,0.031028759992122647,-0.09594868367016315,0.11135843424797058
1701290498323446000,2.285446044921875,0.017298322537075726,-0.05284253239333629,0.11160247213691472
1701290498333521000,2.29552099609375,-0.08690437647104263,0.04192717062532902,0.10556173066794872
1701290498343597000,2.30559716796875,-0.17346388502717017,0.07450082197189331,0.07104191368967294
1701290498353672000,2.315671875,-0.18097384053217247,0.029407296270132062,0.09462971002608538
1701290498363746800,2.325746826171875,-0.174935711145401,-0.015537176349759102,0.1199754559457302
1701290498373822000,2.335822021484375,-0.19933951830612495,-0.04786883563399315,0.13940204094946385
1701290498383898000,2.345898193359375,-0.20555530581474302,-0.0457622187435627,0.16202362260222433
1701290498393973000,2.355972900390625,-0.18298222121251745,-0.03941080389022827,0.14991612844020127
1701290498404048000,2.3660478515625,-0.13710779253244398,-0.007660159364342689,0.07179916179776191
1701290498414124000,2.3761240234375,-0.044014480027090755,-0.015842881298065183,-0.032338673546910286
1701290498424199000,2.386198974609375,0.02455810267329216,-0.08031915286183357,-0.057417877484858035
1701290498434274000,2.396274169921875,0.04685176754593849,-0.1032405942440033,-0.026866964137554166
1701290498444350000,2.406349853515625,0.03395840196954086,-0.07327917122244834,0.04689940607994795
1701290498454425000,2.416425048828125,-0.037727380847930904,-0.04316694155335426,0.0654424862474203
1701290498464500000,2.4265,-0.09046294573545455,-0.003916881182789802,0.027842238910496232
1701290498474576000,2.436575927734375,-0.09909752135621383,0.02242518229782581,-0.04122983601093292
1701290498484651000,2.446651123046875,-0.04457795912874862,-0.03906418240964413,-0.08108136940598487
1701290498494726000,2.456725830078125,0.04112696015834808,-0.06292670403420925,-0.02142652664929628
1701290498504802000,2.466802001953125,0.10310381612181663,-0.01897007340788841,0.043620822800695895
1701290498514877200,2.476877197265625,0.11679330051196739,0.027506431084871292,0.049205052673816675
1701290498524951800,2.486951904296875,0.003981726579926907,0.013583704194426536,0.008996668665111065
1701290498535028000,2.497028076171875,-0.18238252002000807,-0.050503275790810584,-0.05815086793452501
1701290498545103000,2.50710302734375,-0.2432207090760581,-0.10224807607531547,-0.02223492042273283
1701290498555178000,2.517177978515625,-0.14094576326012612,-0.09977321039438247,0.06961275766938925
1701290498565254000,2.52725390625,0.03452768975747749,-0.0940162543028593,0.1297878249078989
1701290498575329000,2.5373291015625,0.1394587578390725,-0.14380992051959038,0.15661036538183687
1701290498585404000,2.54740380859375,0.15712532916665076,-0.11332535040676593,0.14472002110183238
1701290498595479000,2.55747900390625,0.052419923067092894,-0.06371405501961708,0.12747019561529158
1701290498605555000,2.567554931640625,-0.11057166778445243,-0.03250175515413284,0.10434358704984187
1701290498615629800,2.5776298828125,-0.20122282956838605,-0.052801031339168546,0.11790303358584642
1701290498625705000,2.587705078125,-0.1222983459353447,-0.06583528495728969,0.17117781991660594
1701290498635781000,2.597781005859375,0.05668928921567276,-0.03908931685090065,0.17473609692007303
1701290498645856000,2.60785595703125,0.1603565661728382,-0.02479074238538742,0.1443219616949558
1701290498655931000,2.617930908203125,0.14748890129327774,-0.03197393188774585,0.06993190662115811
1701290498666007000,2.628007080078125,0.05705048721088096,-0.06796586724519729,0.05942337208837271
1701290498676082000,2.63808203125,-0.043559740263223644,-0.06078209322094917,0.0792877639874816
1701290498686157000,2.648156982421875,-0.07010987527025864,-0.05542436558008194,0.14805617978721855
1701290498696233000,2.65823291015625,-0.012076203974615781,-0.025548867276310918,0.1995204095646739
1701290498706307800,2.668307861328125,0.059117374879121776,-0.018339958810806273,0.17067980726659296
1701290498716383000,2.678383056640625,0.15580898587107658,-0.021164953103661534,0.057528936643898486
1701290498726459100,2.688459228515625,0.1371966215933673,-0.040648236730694766,0.00305646496117115
1701290498736533800,2.69853369140625,-0.03384029201520607,-0.05536883600056171,0.03177811705470085
1701290498746609000,2.70860888671875,-0.15465513966083524,-0.04928337860703468,0.037677988748252386
1701290498756684000,2.71868408203125,-0.13160508519662542,0.0026040450185537338,0.020937574088573455
1701290498766760000,2.728760009765625,-0.007678297809232026,-0.010438391906023026,0.07870499566346406
1701290498776835000,2.7388349609375,0.07549102031933143,-0.07179507014453411,0.15224106425642966
1701290498786910000,2.748909912109375,0.1506990772451274,-0.1139496197849512,0.14921061051934956
1701290498796986000,2.758986083984375,0.1560591429735534,-0.10027648374140262,0.09774404265433549
1701290498807061000,2.76906103515625,0.08293779266132041,-0.06183657070994377,0.06841127292513847
1701290498817136000,2.77913623046875,-0.047541521642077714,0.0005471124887466431,0.004372515995800495
1701290498827212000,2.7892119140625,-0.14506898066997528,0.08168050434291363,-0.06837240221947431
1701290498837287000,2.799286865234375,-0.1774853773619048,0.09741349552571774,-0.11511281834542751
1701290498847362000,2.809362060546875,-0.1097755489706993,0.045832945892214774,-0.10181932926923036
1701290498857438200,2.819438232421875,-0.02635492296218872,-0.012491817304491996,-0.08772095355093479
1701290498867512800,2.829512939453125,0.00945988399637863,-0.03303250102996826,-0.0922056977495551
1701290498877588000,2.839587890625,-0.05306523523330688,-0.010765139642357825,-0.08014408855587243
1701290498887664000,2.8496640625,-0.14974398674368858,0.02400163783431053,-0.09857873991280794
1701290498897739000,2.859739013671875,-0.21360535954581572,0.06520984653532505,-0.05662088188827037
1701290498907814100,2.869814208984375,-0.15675824941992758,0.09322948783934115,-0.06080196696519851
1701290498917890000,2.87989013671875,-0.07323007138371466,0.044164135897159576,-0.07522709041982889
1701290498927966000,2.889966064453125,-0.012532149314880371,0.00812193165719509,-0.0819321410164237
1701290498938041000,2.900041015625,0.0005213752592913806,-0.09073942458927631,-0.1130982636526227
1701290498948116700,2.91011669921875,0.02444238560544327,-0.13860124596059323,-0.21025018563270567
1701290498958191900,2.92019189453125,0.0037724860097281634,-0.07783785744011401,-0.3086290190592408
1701290498968267000,2.93026708984375,-0.10429273364543915,0.03283084097802639,-0.2703770298153162
1701290498978342700,2.9403427734375,-0.1133481467604637,-0.010420271727442742,-0.24426585248112678
1701290498988417800,2.950417724609375,0.04264089011894539,0.02610533211529255,-0.12164689628928899
1701290498998493000,2.960492919921875,0.21230417728675527,-0.0018126023799180982,-0.0110842885941267
1701290499008567800,2.97056787109375,0.23807923626806585,-0.1407587162554264,-0.03488163602799177
1701290499018644000,2.98064404296875,0.23553539700414983,-0.10271510906517504,-0.022045535330474375
1701290499028718800,2.99071875,0.1587070636664517,0.03082651541829109,-0.10095394461154937
1701290499038793700,3.000793701171875,0.0016284779846668243,0.0740653531640768,-0.2686731485068798
1701290499048870000,3.010869873046875,-0.024524200403690338,0.100756960734725,-0.3426557918235659
1701290499058945000,3.020945068359375,0.03385667689442634,-0.0014437690675258635,-0.276598973070085
1701290499069020000,3.03102001953125,0.18292261824607847,-0.033572599256038664,-0.0733773708999157
1701290499079095800,3.041095703125,0.2761889309644699,0.058408934348821634,0.09132394647896289
1701290499089171000,3.0511708984375,0.260209271544218,0.12060966219604015,0.12895020503997803
1701290499099245800,3.061245849609375,0.10078211344229057,0.13785481150746345,0.04892740477621555
1701290499109321700,3.07132177734375,-0.08383097864137962,0.09124445150196552,-0.1343617086946964
1701290499119396900,3.08139697265625,-0.18638885131822897,0.027545594051480292,-0.24389964951723814
1701290499129471700,3.0914716796875,-0.08357727787494659,-0.02897124294042587,-0.3050625587493181
1701290499139548000,3.1015478515625,0.10216273587942123,-0.048598318952322,-0.3420639634102583
1701290499149623000,3.111623046875,0.2063105080962181,-0.04191197305619716,-0.29688275942504405
1701290499159697700,3.12169775390625,0.1874035447861068,-0.10790098727047442,-0.2420934768781066
1701290499169773800,3.13177392578125,0.17018826088998465,-0.12236615047454834,-0.1541708632752299
1701290499179849000,3.141848876953125,0.1944669255673885,-0.09120295044779778,-0.06548457182347774
1701290499189923800,3.151923828125,0.2279214514017105,0.07597147904634476,0.0567351559177041
1701290499199999000,3.1619990234375,0.2252875775004737,0.31479075655937194,0.16766221301108597
1701290499210075000,3.172074951171875,0.16633735761549323,0.38474224466383455,0.21406097609251737
1701290499220149800,3.182149658203125,0.12156183008803054,0.30117315009534357,0.23257453790456056
1701290499230225000,3.192224853515625,0.05615030523445457,0.20881635343730448,0.17612550545185804
1701290499240300800,3.20230078125,-0.012906243324279785,0.07532324427068234,0.08595189805179834
1701290499250375700,3.212375732421875,-0.05951251167654991,-0.024780220991373062,-0.011927169159054755
1701290499260450800,3.222450927734375,0.001637812068592757,-0.013700608572363852,-0.13818740446269512
1701290499270527000,3.23252685546875,0.10937102329041808,0.08730535848736762,-0.2572574360013008
1701290499280601900,3.242601806640625,0.1357224756538868,0.17136428239941595,-0.4490644947096705
1701290499290676700,3.2526767578125,0.08604629833698273,0.10650164186656474,-0.6608344372555613
1701290499300753000,3.2627529296875,0.10876903880927712,-0.008382043898105622,-0.8054059897974133
1701290499310828000,3.272828125,0.09433012429131195,-0.14588789583742617,-0.7482774506479501
1701290499320903000,3.28290283203125,0.08989358488228172,-0.19694412933588026,-0.5203396326333284
1701290499330978800,3.292978759765625,0.14621345626367255,-0.20095687210857868,-0.32769583083987236
1701290499341054000,3.303053955078125,0.22563246368169784,-0.16793255438506602,-0.24600422058105467
1701290499351128800,3.31312890625,0.2724246465275064,-0.15641221246123313,-0.1752186197400093
1701290499361204700,3.323204833984375,0.2526315297663212,-0.22666005316376686,-0.11906798571199179
1701290499371280000,3.33327978515625,0.1999100299367681,-0.2964969749778509,-0.09647329206615686
1701290499381354800,3.343354736328125,0.12285714886188506,-0.3302466843664646,-0.0968698901683092
1701290499391431000,3.353430908203125,0.07496960852742195,-0.22409750919938087,-0.07929828538149594
1701290499401506000,3.363506103515625,0.056835364889167246,0.04188216243982315,-0.1364072430476546
1701290499411581000,3.373580810546875,0.003715221130847931,0.12388473834395408,-0.20173823174461722
1701290499421656800,3.38365673828125,-0.01782086684014648,0.010595628294348717,-0.224914086279273
1701290499431732000,3.39373193359375,0.06805825823638588,-0.002697568520903587,-0.19364947170466185
1701290499441806800,3.403806884765625,0.1365759141454473,0.08384849603176116,-0.1969321466371417
1701290499451882800,3.4138828125,0.025454722719453274,0.11916647765040397,-0.13284633569568394
1701290499461958000,3.4239580078125,-0.13884732967615127,0.130123340472579,-0.11313085074797272
1701290499472032800,3.43403271484375,-0.20935232347752897,0.07708499324619769,-0.145581460236758
1701290499482108000,3.44410791015625,-0.1280184771478176,-0.00158639240860939,-0.1452925602927804
1701290499492183800,3.454183837890625,0.010148469048738479,-0.049229602593183514,-0.10215922874808311
1701290499502258700,3.4642587890625,0.1382136714151129,-0.04854746554791927,-0.08991992489993572
1701290499512333800,3.474333740234375,0.13333057554867117,0.008465630528330803,-0.13011165003478525
1701290499522410000,3.484409912109375,0.07884378307964653,0.06468202326893806,-0.2248416055649519
1701290499532484900,3.49448486328125,0.0006780088594183325,0.025386954712867737,-0.29602058963775635
1701290499542559700,3.504559814453125,-0.06383680461645126,-0.03312485548853874,-0.3692524145871401
1701290499552636000,3.514635986328125,-0.0841477712392807,-0.06446458112597465,-0.3761681853249669
1701290499562710800,3.524710693359375,0.0020797288835048672,-0.061060325640439984,-0.32521365863531826
1701290499572786000,3.534785888671875,0.06549454522822051,0.015779752933979034,-0.27789193549007174
1701290499582861800,3.54486181640625,0.04670914420485496,0.1455553028821945,-0.27110651313364503
1701290499592936700,3.554936767578125,-0.0437363024065271,0.26991291943490503,-0.32722149132639167
1701290499603011800,3.56501171875,-0.15346161902733146,0.2724199338197708,-0.4051654394894838
1701290499613088000,3.575087890625,-0.26538119428940116,0.13552081560194493,-0.43018443767279385
1701290499623162600,3.58516259765625,-0.24737433989048002,0.057064534002542494,-0.3859393454939127
1701290499633237800,3.59523779296875,-0.1409106919467449,0.06869827317297458,-0.2910981846742332
1701290499643314000,3.60531396484375,-0.06289097513370215,0.1339402684122324,-0.23760303359106183
1701290499653389000,3.61538916015625,-0.06156535255312919,0.16757833411991596,-0.20122662896066904
1701290499663464000,3.6254638671875,-0.03570383913107216,0.1943716484993696,-0.24523089812099932
1701290499673539800,3.635539794921875,-0.034192192459106444,0.12547229979634283,-0.2623005447350442
1701290499683615000,3.645614990234375,-0.053476738643646236,0.032685879549384116,-0.1947510032057762
1701290499693689900,3.65568994140625,-0.029917072423174977,0.05056172797977924,-0.14147270974367857
1701290499703765800,3.665765869140625,0.03831424082517624,0.1340788001000881,-0.0466911701567471
1701290499713841000,3.6758408203125,0.05356090979576111,0.19018354915976524,-0.04876739190891385
1701290499723915800,3.685915771484375,0.008363302665017544,0.09660334818661212,-0.12630597414150832
1701290499733992000,3.695991943359375,-0.0261853385489434,-0.034031448939442634,-0.21788754864335058
1701290499744067000,3.706067138671875,-0.014095160847902298,-0.10222294163405894,-0.23725188206583261
1701290499754141700,3.7161416015625,0.01473813492655754,-0.12650982615053652,-0.2512444593220949
1701290499764216800,3.726216796875,-0.02501063221376389,-0.07516191622912884,-0.2869904570944607
1701290499774293000,3.73629296875,-0.05545483378358185,0.006466565665602684,-0.31658173162937164
1701290499784367900,3.746367919921875,-0.0817256586588919,0.03763268830180168,-0.34661665827855465
1701290499794443000,3.756443115234375,-0.035335590340569614,-0.03412321887612343,-0.3685340371847152
1701290499804519000,3.766518798828125,-0.020837109388783574,-0.07109598196446895,-0.33190833396837116
1701290499814593800,3.77659375,0.010011690926551818,-0.09352642495930194,-0.26770298830047246
1701290499824669000,3.7866689453125,0.04678739707283675,-0.11531447839736937,-0.2289475795790553
1701290499834744800,3.796744873046875,0.07029920556358993,-0.08796703726649284,-0.1935986183002591
1701290499844819700,3.80681982421875,0.09278802768215537,-0.01879062518775463,-0.14212152904123068
1701290499854894800,3.816894775390625,0.12838212282843886,-0.009337737187743186,-0.08344342236220836
1701290499864971000,3.826970947265625,0.19962357767820357,-0.07008885074853896,0.02547814012765884
1701290499875046000,3.8370458984375,0.30798575271964074,-0.04874269585907459,0.08969313040673732
1701290499885120800,3.847120849609375,0.3423322589576244,0.002150456032156944,0.18601707713007926
1701290499895197000,3.857197021484375,0.22150924627184868,0.06565057604014873,0.23918138882368803
1701290499905271800,3.867271728515625,0.06786525641493499,0.031383564779162404,0.23292700460404156
1701290499915347000,3.877346923828125,-0.015184782715514301,-0.10148936666250229,0.1364180567026138
1701290499925422800,3.8874228515625,0.09970072968006133,-0.23680384603738783,0.037976094911992546
1701290499935498000,3.897498046875,0.21962825483083723,-0.2997574380785227,0.023274200342595575
1701290499945572900,3.90757275390625,0.24438838288225231,-0.32347850540578366,0.05042991829365492
1701290499955649000,3.91764892578125,0.1513502528965473,-0.33899814609885215,0.1457961259007454
1701290499965724000,3.927723876953125,0.05701550722904503,-0.2915729625791311,0.2173725848585367
1701290499975798800,3.937798828125,0.02257423537969589,-0.197601131939888,0.26467034260630606
1701290499985875000,3.947875,0.03896890534162521,-0.169105689817667,0.23320406797975302
1701290499995950000,3.9579501953125,0.1284369948208332,-0.21263152781128883,0.21831980258077383
1701290500006025000,3.96802490234375,0.21914448990188537,-0.2626128255546093,0.1971381906032562
1701290500016100900,3.978100830078125,0.23913835339955983,-0.23208558534383772,0.24843115546703337
1701290500026176000,3.988176025390625,0.189618901014328,-0.1938929250717163,0.2525090724304318
1701290500036251000,3.9982509765625,0.1152734887998551,-0.18216098622381685,0.20328034662008285
1701290500046326800,4.008326904296875,0.04815985446982085,-0.22979601310193537,0.0967240519568324
1701290500056402000,4.01840185546875,0.06216521814242005,-0.34564825163781643,-0.03189209882318973
1701290500066477000,4.02847705078125,0.058765492701530454,-0.43366731135249137,-0.17628478766679762
1701290500076552000,4.038552001953125,0.0323347280241549,-0.3179273010194301,-0.3253732331112027
1701290500086627800,4.0486279296875,-0.015218758050352334,0.038838556960225104,-0.3852265210494399
1701290500096703000,4.058702880859375,-0.11027604583874344,0.5577987179338931,-0.30930560314655303
1701290500106777900,4.06877783203125,-0.19980945563912392,0.8279244033366441,-0.24727789377868173
1701290500116854000,4.07885400390625,-0.2371101355075836,0.6798071410119533,-0.09905249490439891
1701290500126929200,4.08892919921875,-0.18818799142837522,0.2915595185756683,-0.013128946164250373
1701290500137003800,4.099003662109375,-0.04137574728764593,-0.08132979120910168,0.03429302248507738
1701290500147080000,4.109079833984375,0.10423654647879302,-0.24397943675518036,0.08254355091303586
1701290500157155000,4.119155029296875,0.15533070083484052,-0.15135259098410606,0.230714296990633
1701290500167230000,4.12922998046875,0.13155826864652334,0.019845687198638915,0.40514878061562776
1701290500177305900,4.139305908203125,0.18947978480458258,0.0980512089073658,0.5684393544137477
1701290500187381000,4.149381103515625,0.2621161280788481,-0.0048562078595161436,0.6887655234932899
1701290500197456000,4.159455810546875,0.26382176295295356,-0.26759002944529053,0.7213827217206359
1701290500207532000,4.169531982421875,0.21304083926454184,-0.410648254814744,0.7860586075097322
1701290500217607000,4.17960693359375,0.1771696807425469,-0.4167144229859113,0.9373670670911669
1701290500227681800,4.189681884765625,0.1508100816052407,-0.3087356943041086,1.0468383724182844
1701290500237758000,4.199758056640625,0.16225027096495032,-0.2122702932834625,1.0706202300220726
1701290500247833000,4.2098330078125,0.058418286699056625,-0.20780863769948482,1.0663023668229579
1701290500257908000,4.219907958984375,-0.2789163831669837,-0.2039578074902296,1.0612658339604735
1701290500267984000,4.22998388671875,-0.7991688489735126,-0.17217033808529375,0.9407795058831572
1701290500278059000,4.24005908203125,-1.0877635263942182,-0.040162499040365215,0.7227826516464352
1701290500288134000,4.2501337890625,-0.9860545256316662,0.23708207845687865,0.5491238285690546
1701290500298209800,4.260209716796875,-0.6819757172226906,0.3770803317338228,0.48727995133548974
1701290500308285000,4.270284912109375,-0.3667322484597563,0.24525953969359396,0.5395625117585062
1701290500318359800,4.28035986328125,-0.06214154500588774,0.02085807911157608,0.7700009144172072
1701290500328436000,4.29043603515625,0.19638897967115043,-0.15847732829749583,0.9125932758405804
1701290500338511000,4.300510986328125,0.3551065464653074,-0.31173955229520794,0.9025345309019088
1701290500348585700,4.310585693359375,0.4003028018891811,-0.4376742089062929,0.8728972252681851
1701290500358662000,4.320661865234375,0.34468788217306134,-0.4916840315133333,0.8477747667104005
1701290500368737000,4.330737060546875,0.2354771274782717,-0.5035661924868822,0.8139514075636863
1701290500378812000,4.34081201171875,0.12846271378397942,-0.4941097973555326,0.7283513916894793
1701290500388887800,4.3508876953125,0.06836546102203428,-0.44752340274751184,0.6010530455097556
1701290500398963000,4.360962890625,0.07804872371181845,-0.40804713240563867,0.43611324319988487
1701290500409037800,4.371037841796875,0.10393033007383345,-0.39034488697648045,0.2390691606208682
1701290500419113000,4.381113037109375,0.046258989284560084,-0.33820494989454747,0.14657032514363527
1701290500429188900,4.39118896484375,-0.059559127297252414,-0.07396423087716102,0.22477467780858276
1701290500439264000,4.401263916015625,-0.19550971261858938,0.14000760562717915,0.2267170440480113
1701290500449339000,4.4113388671875,-0.25135011165365573,0.09138824388682841,0.06982873850762844
1701290500459415000,4.4214150390625,-0.18844291603751478,-0.09250526521801948,-0.0764294519469142
1701290500469490200,4.431490234375,-0.06045709905028343,-0.2511889297425747,-0.19259557873755692
1701290500479564800,4.441564697265625,0.0024479776740074155,-0.34741000061333177,-0.28200170889645815
1701290500489641000,4.451640869140625,-0.08740005103349685,-0.3401058150798082,-0.3170075558260083
1701290500499716000,4.461716064453125,-0.21900749258399008,-0.24831015943586826,-0.2294897236317396
1701290500509791000,4.471791015625,-0.21315160616263745,-0.15036533351242543,0.007966156573593616
1701290500519867000,4.481866943359375,-0.06631853842958807,-0.17655366773605347,0.2136427506804466
1701290500529942000,4.49194189453125,0.035487492966651914,-0.1992909847229719,0.38217005608826876
1701290500540017000,4.502016845703125,0.003240735486894846,-0.09425707732141017,0.4771259293287992
1701290500550093000,4.512093017578125,-0.22187632601857185,0.1361228731483221,0.494981904014945
1701290500560168000,4.52216796875,-0.49950551891922945,0.2007990511983633,0.4442722919970751
1701290500570242800,4.532242919921875,-0.665181380418688,-0.08008592862784862,0.2879112252011895
1701290500580319000,4.542319091796875,-0.5676106485046446,-0.38495910228490826,0.21092092450112104
1701290500590394000,4.55239404296875,-0.41946357556357977,-0.45325171726644037,0.43065439327210187
1701290500600469000,4.562468994140625,-0.3718668348692357,-0.4054144458144903,0.641360505978763
1701290500610545000,4.572544921875,-0.26254502101540567,-0.22819208503663538,0.7650020832166076
1701290500620620000,4.5826201171875,0.01630567650422454,-0.1478261704236269,0.8983326952978968
1701290500630695000,4.59269482421875,0.2887805553816259,-0.23135434845983982,1.1317352084591985
1701290500640770800,4.602770751953125,0.4010580041706562,-0.4157528844773769,1.2498226587012409
1701290500650846000,4.612845947265625,0.32601708397269247,-0.5755746131211519,1.2427221790462732
1701290500660920800,4.6229208984375,0.02891980501413345,-0.6272101078122854,1.2360878555983303
1701290500670997000,4.6329970703125,-0.386357424775511,-0.63247957264781,1.2132822956807912
1701290500681071900,4.64307177734375,-0.7747298426352441,-0.726067372405529,1.0051052630603312
1701290500691146800,4.653146728515625,-0.9353509049631654,-0.7433078455418348,0.938940892279148
1701290500701223000,4.663222900390625,-0.8159798446513712,-0.3011813334017992,1.325360714766383
1701290500711298000,4.673298095703125,-0.6144916421450675,0.2815595180869102,1.7507897746056318
1701290500721373000,4.683373046875,-0.4805553192555904,0.4104869267731905,1.7272950633801518
1701290500731448800,4.69344873046875,-0.36949864443317054,0.09341770388782024,1.5065071171201765
1701290500741524000,4.70352392578125,-0.2711189342238009,-0.2699941679775715,1.4060893252119422
1701290500751598800,4.713598876953125,-0.24689766228944063,-0.29153730674386025,1.402749367134273
1701290500761675000,4.723675048828125,-0.3886708162844181,0.004379822519421577,1.3587154334880411
1701290500771750000,4.73375,-0.7265503336168825,0.47838849661052224,1.1553797034189104
1701290500781824800,4.74382470703125,-1.209671703968197,0.8614075707435608,0.756512633421272
1701290500791900000,4.75389990234375,-1.8199078806258737,0.7446849791139364,0.2358908228456974
1701290500801976000,4.76397607421875,-2.4089291275583204,0.43709494771361346,-0.18513912525177
1701290500812051000,4.774051025390625,-2.5607062275648116,0.16891688924729822,-0.15966376160308718
1701290500822125800,4.784125732421875,-2.278726876630634,-0.03649637774825096,0.0597568418264389
1701290500832202000,4.794201904296875,-1.7768132736563682,0.03968903630971908,0.2697472074791789
1701290500842277000,4.804277099609375,-1.2976070309221743,0.3830564835339784,0.3332036344759166
1701290500852352000,4.81435205078125,-0.8959902238249778,0.8161486253470182,0.23204539946392178
1701290500862428000,4.824427978515625,-0.6081961952626704,1.2376485290437935,0.04520736133977771
1701290500872503000,4.8345029296875,-0.47473216606006025,1.56526194229722,-0.04435571294650435
1701290500882578000,4.844577880859375,-0.4485737885832786,1.9044325223535299,-0.059799950315803284
1701290500892653800,4.85465380859375,-0.4978595783431083,2.168078782609105,-0.039021512311697
1701290500902729000,4.86472900390625,-0.5200702411074191,2.2822920217663047,0.013145020516216754
1701290500912803800,4.874803955078125,-0.42380759611725805,2.2082219924271107,0.005004384158551692
1701290500922880000,4.8848798828125,-0.3479015835225582,1.8456401416450738,0.022921441382169724
1701290500932954600,4.89495458984375,-0.32603578867316246,1.2710340812951326,0.17617065976783633
1701290500943029800,4.90502978515625,-0.3593687704870477,0.6824439192563295,0.40988340792208905
1701290500953105700,4.915105712890625,-0.2943056024134159,0.28376725726425645,0.5846401092387735
1701290500963180500,4.9251806640625,-0.09253040879243053,0.09685527712106703,0.6710998106822371
1701290500973255700,4.935255615234375,0.11359894318375736,-0.02200958723425865,0.6954238123387098
1701290500983331600,4.94533154296875,0.3039817777752876,-0.08335983573198318,0.6690697661593557
1701290500993406500,4.955406494140625,0.3689361882448196,-0.15437807628512382,0.5916223693415522
1701290501003481600,4.965481689453125,0.3513700633507222,-0.25413608911037444,0.5279933622568845
1701290501013557800,4.975557861328125,0.4574720018425956,-0.3241916221112013,0.5098319748833775
1701290501023632600,4.985632568359375,0.7123089692313224,-0.30004502284824847,0.4513327319025993
1701290501033707500,4.99570751953125,0.9898995106220245,-0.23263678948581218,0.3257452812939882
1701290501043783700,5.00578369140625,1.2537450928419829,-0.2513052495986223,0.17781886536628008
1701290501053858600,5.015858642578125,1.4851608161002396,-0.3526642678797245,0.003037467999756336
1701290501063933700,5.02593359375,1.6521439608059822,-0.5246119031250477,-0.2194970296666026
1701290501074009600,5.036009521484375,1.7306459812432526,-0.5986509528040885,-0.4234823096856475
1701290501084084500,5.04608447265625,1.7083599151551723,-0.5296925673902034,-0.5425067485168575
1701290501094159600,5.05615966796875,1.510803353009373,-0.2585772864282131,-0.5800450365334748
1701290501104235800,5.06623583984375,1.153267533570528,0.05907528930306434,-0.7715162874162197
1701290501114310400,5.076310302734375,0.8051549376457929,0.20138824926316737,-1.1660264773786067
1701290501124385500,5.086385498046875,0.5751640595588833,0.05702654007971286,-1.594119495730102
1701290501134461700,5.096461669921875,0.4298161158170551,-0.08367664659619331,-1.8507731206193565
1701290501144536600,5.10653662109375,0.32141280504763126,-0.04794833061099052,-1.8386071742683647
1701290501154611700,5.11661181640625,0.17208792049884794,0.12438567360341549,-1.6761173954591153
1701290501164687600,5.1266875,0.017254501661658286,0.3445055113434791,-1.476474820819497
1701290501174762800,5.1367626953125,-0.11100494463518261,0.45149230637848375,-1.2083230658382176
1701290501184837600,5.146837646484375,-0.17666523835174738,0.35353052932024,-0.8538666538447142
1701290501194912800,5.156912841796875,-0.19062778579592704,0.1797849047422409,-0.5411313685104251
1701290501204988700,5.16698876953125,-0.21489070491492748,0.014839841735363006,-0.28162527679949995
1701290501215063600,5.1770634765625,-0.2792126626998186,-0.03691547994315624,-0.05614303524345159
1701290501225139700,5.1871396484375,-0.3837888163965195,-0.10765957973003387,0.07257189973592758
1701290501235214600,5.197214599609375,-0.41091596584022044,-0.12247487154603004,0.03899053265154361
1701290501245289500,5.20728955078125,-0.4450748405516147,-0.019188100072741507,0.050369712539017196
1701290501255365600,5.21736572265625,-0.4834481180876493,0.11603344032168388,0.029845979948341844
1701290501265440800,5.227440673828125,-0.5621504103373736,0.2983697831124067,-0.11908552136868238
1701290501275515600,5.237515625,-0.7036111373823136,0.4244318654954433,-0.29722382794767616
1701290501285590500,5.247590576171875,-0.7410024181436747,0.4940899236112833,-0.46418344564735886
1701290501295666700,5.257666748046875,-0.7206774229954928,0.5367746346056461,-0.5866317214474082
1701290501305741600,5.267741455078125,-0.6775007637657224,0.48400458292663096,-0.6884025353997946
1701290501315816700,5.277816650390625,-0.601011252194643,0.44216275249719617,-0.7533861719638109
1701290501325892600,5.287892578125,-0.5061303438864648,0.4763268879055977,-0.794007812948525
1701290501335967500,5.297967529296875,-0.42444647854268547,0.49902504192590713,-0.6711752140060067
1701290501346042600,5.308042724609375,-0.3219539261870086,0.3876192614048719,-0.42524230509549377
1701290501356118800,5.318118896484375,-0.19272212772667408,0.12022153966128825,-0.2369946924343705
1701290501366193400,5.328193359375,0.0020071020387113095,-0.1519429580926895,-0.10898001467883586
1701290501376268500,5.3382685546875,0.20413973992839454,-0.3688023327320814,-0.12446399953663348
1701290501386344700,5.3483447265625,0.39078810069933534,-0.4609703288197517,-0.14314707269668578
1701290501396419600,5.358419677734375,0.5294026445329189,-0.4741682485669851,-0.1230126316845417
1701290501406494700,5.36849462890625,0.5967391278333961,-0.4253770373910665,-0.10607347958236932
1701290501416570600,5.378570556640625,0.6046576458729803,-0.36841128758788105,-0.08295300849676132
1701290501426645500,5.3886455078125,0.5820335800021886,-0.3115180184990167,-0.16380846019238232
1701290501436720600,5.398720703125,0.6006225451380014,-0.27349370053112504,-0.22255407914966344
1701290501446796500,5.408796630859375,0.5892278754204511,-0.23750410326123236,-0.2696697583287954
1701290501456871400,5.418871337890625,0.574725887337327,-0.17923779225349426,-0.2929121022284031
1701290501466946600,5.428946533203125,0.4987801272541284,-0.13975158503949642,-0.29645079774856564
1701290501477022700,5.439022705078125,0.3907265797704458,-0.19328852943778038,-0.2581891638934612
1701290501487097600,5.44909765625,0.35928733928129075,-0.3258364667087793,-0.22793752575367687
1701290501497172500,5.45917236328125,0.34609789510145783,-0.5356809941500426,-0.20241233161389827
1701290501507248600,5.46924853515625,0.3233635007239878,-0.709524818405509,-0.2366907410517335
1701290501517323500,5.479323486328125,0.3126940765410661,-0.8104343393534421,-0.31167262453883887
1701290501527398700,5.489398681640625,0.2700391761630773,-0.8140940309047698,-0.4231576077759266
1701290501537474600,5.499474609375,0.1973053638637066,-0.7270844404935837,-0.5770943700343371
1701290501547549700,5.5095498046875,0.10243059303537011,-0.6154378369539976,-0.702879681302607
1701290501557624600,5.51962451171875,-0.005866261684894561,-0.5070715702593326,-0.7610358099341392
1701290501567700700,5.52970068359375,-0.08290741578936577,-0.3737093939960003,-0.7660229506969451
1701290501577775600,5.539775634765625,-0.08067030438706278,-0.24795009395182133,-0.7343202369660139
1701290501587850500,5.5498505859375,-0.04651376776322722,-0.18287234936356545,-0.6637991322800517
1701290501597926700,5.5599267578125,-0.05864508119225502,-0.17580431067347527,-0.6085054073423147
1701290501608001800,5.570001708984375,-0.08956687367856501,-0.1915747112572193,-0.5339905568450689
1701290501618076700,5.58007666015625,-0.1152775073878467,-0.2314946337133646,-0.479599333705008
1701290501628152600,5.590152587890625,-0.16503376420363783,-0.28806875385046005,-0.3877770823150873
1701290501638227700,5.600227783203125,-0.21676994279026984,-0.37262861302196976,-0.25863573861718175
1701290501648302600,5.610302490234375,-0.2531084996283054,-0.509139024183154,-0.06862199306637048
1701290501658378500,5.62037841796875,-0.25630714953914285,-0.5933370643049478,0.05821048916727304
1701290501668453600,5.63045361328125,-0.2586373460523784,-0.598625818362832,0.08769786493629217
1701290501678528500,5.640528564453125,-0.2659944308169186,-0.6683014121353625,0.12639233725070953
1701290501688604700,5.650604736328125,-0.28425124138891694,-0.7463426831930875,0.16941636320203543
1701290501698679800,5.6606796875,-0.30315234121382234,-0.7139981644272804,0.2161257996678352
1701290501708754400,5.67075439453125,-0.30261706529334187,-0.6051245327323674,0.24996026473045346
1701290501718830600,5.68083056640625,-0.3917239202447235,-0.5757604910820723,0.32842472963631153
1701290501728905700,5.69090576171875,-0.46474984735846514,-0.6011334172695875,0.4170490617677569
1701290501738980600,5.700980712890625,-0.4822213527716696,-0.6462210977524518,0.5016799403488635
1701290501749056500,5.711056396484375,-0.4338187025219202,-0.6325251653552055,0.5065986920505762
1701290501759131600,5.721131591796875,-0.3556288167737424,-0.5634925456613302,0.42229046955257654
1701290501769206500,5.73120654296875,-0.17904621520414948,-0.5568722507387399,0.3008499094903469
1701290501779282700,5.74128271484375,0.0010305120915174483,-0.6814689367443323,0.22355858001708984
1701290501789357600,5.751357666015625,0.11307006047144531,-0.9057219287663698,0.19014380167126654
1701290501799432400,5.761432373046875,0.1611949166931212,-0.9994126043766737,0.0686760613411665
1701290501809507600,5.771507568359375,0.18488544275164603,-0.7096902381002903,-0.1741013061478734
1701290501819583700,5.781583740234375,0.21640622404441237,0.15866262173652648,-0.4896361590728163
1701290501829658600,5.79165869140625,0.19551263522803783,1.205646540105343,-0.7011237775459885
1701290501839733500,5.8017333984375,-0.10351875359825789,1.7205092026323079,-0.8753300053730606
1701290501849809700,5.8118095703125,-0.7247305708438158,1.2766881615340708,-1.0083785856425762
1701290501859884500,5.821884521484375,-1.2208289116680622,0.30504794570207594,-0.8430825172409415
1701290501869959700,5.831959716796875,-1.3334522512853144,-0.043106151276826855,-0.25447715763300655
1701290501880035600,5.84203564453125,-1.520785671710968,0.6745809307962656,0.4484177212387323
1701290501890110500,5.8521103515625,-1.8669284288674592,1.6217898852050303,1.2007362639710306
1701290501900185600,5.862185546875,-2.1716028650820256,2.262235906687379,1.7896616493135689
1701290501910261500,5.872261474609375,-2.2836574649006125,2.2668711652725935,2.0346683832898735
1701290501920336600,5.882336669921875,-1.8578829526245593,1.5011229398638009,1.7675410029202698
1701290501930412000,5.892412109375,-1.360946991932392,0.5400578940600157,1.1521975662514568
1701290501940488200,5.90248828125,-1.1809878996670244,-0.06441606580913066,0.5458887921705842
1701290501950563000,5.91256298828125,-1.181402910208702,-0.505204022821784,0.04806055881381035
1701290501960638000,5.922637939453125,-1.212946049463749,-0.8559756088227033,-0.25257863053530455
1701290501970714000,5.932714111328125,-1.066352635705471,-1.038702412235737,-0.42320933796316385
1701290501980789200,5.942789306640625,-0.5830396152395755,-0.9918196650296449,-0.5403586305722594
1701290501990864100,5.952864013671875,0.2736911958646029,-0.7119850710391998,-0.5332549360468983
1701290502000940000,5.96293994140625,1.2030617112439126,-0.36655952224135396,-0.5331009145289659
1701290502011015200,5.97301513671875,1.803902940633893,0.023376783934235573,-0.5633467074498534
1701290502021090000,5.983090087890625,1.9840788905203341,0.3345107715517282,-0.5313049710229039
1701290502031166000,5.993166015625,1.9301848032474516,0.5688526113897562,-0.4315243079744279
1701290502041241000,6.003240966796875,1.8050491880595683,0.7052268289506435,-0.13038681371435523
1701290502051316000,6.01331591796875,1.4414344870984555,0.714748690533638,0.329677067784965
1701290502061392100,6.02339208984375,0.8703051629483699,0.5071346986234188,0.9013239860683679
1701290502071467300,6.03346728515625,0.3181997247526422,0.13677052340209483,1.3965236244872212
1701290502081542000,6.0435419921875,0.1654986417690292,-0.2744938174843788,1.7123332027003169
1701290502091618000,6.0536181640625,0.3575170051405206,-0.6151701259285212,1.6800545887775717
1701290502101693200,6.063693115234375,0.6213479377806186,-0.6995815165400505,1.119165942004323
1701290502111768000,6.07376806640625,0.773121384525299,-0.5060591783463955,0.3328647579103708
1701290502121844000,6.083843994140625,0.8206932830393314,-0.23919395604431629,-0.5060717455670237
1701290502131919000,6.093919189453125,0.815527863100171,-0.21846505627036095,-1.2253382057860494
1701290502141994000,6.103993896484375,0.7715338230729103,-0.4166717528879642,-1.6425120629772543
1701290502152070100,6.114070068359375,0.6956658044010401,-0.5175193145155906,-1.680288251402974
1701290502162145000,6.12414501953125,0.5490589466392993,-0.3302279796659946,-1.4081437735237181
1701290502172220000,6.134219970703125,0.2349801377415657,0.06765256351232528,-0.8372760229192674
1701290502182296000,6.144296142578125,-0.165662855887413,0.3839163152337074,-0.11821925992816686
1701290502192371200,6.15437109375,-0.4172515986025333,0.4331207833856344,0.42106326584517956
1701290502202446000,6.164446044921875,-0.3469114034414291,0.3945791635453701,0.8566983701393007
1701290502212522000,6.17452197265625,-0.09049801704883575,0.26611352715194225,1.0672798335529863
1701290502222597000,6.18459716796875,0.14240472989678382,0.07362579270303249,1.0839493749335407
1701290502232672000,6.194672119140625,0.3220867587864399,-0.041461306679248806,0.8440463938370346
1701290502242748000,6.204747802734375,0.5248609094500541,-0.05478022245764732,0.4791550970688462
1701290502252823000,6.214822998046875,0.7439993349373341,-0.043667292290925974,0.05596797093749046
1701290502262898000,6.22489794921875,0.9071206896483898,-0.0011561842978000641,-0.33179230637326834
1701290502272974000,6.23497412109375,0.9709399586081504,0.0420674558788538,-0.5883084224879741
1701290502283049200,6.24504931640625,1.0311526544433087,-0.008217208725214004,-0.636893881958723
1701290502293123800,6.255123779296875,1.038487308180332,-0.09214636877775191,-0.49988078197240826
1701290502303200000,6.265199951171875,0.9319839127480983,-0.0951928968667984,-0.12131196524649858
1701290502313275100,6.275275146484375,0.827762490773201,0.0032797523230314253,0.3036461160801351
1701290502323350000,6.28535009765625,0.7854595456380397,0.03418400915265083,0.5139148602828383
1701290502333426000,6.295426025390625,0.7265256375670432,0.02891512883901596,0.5686136880673468
1701290502343501000,6.3055009765625,0.6059563804466277,-0.02456979311108589,0.5408278555192053
1701290502353576200,6.315576171875,0.4518962840694934,-0.12256138078570365,0.4763751109614968
1701290502363652000,6.325652099609375,0.22830255967378615,-0.2291372569322586,0.42336540530771016
1701290502373727000,6.33572705078125,0.03913717458061874,-0.33894670817255973,0.36449586770981546
1701290502383802000,6.345802001953125,-0.10951134507656096,-0.3495534423828125,0.3360618003860116
1701290502393878000,6.3558779296875,-0.1488402428369969,-0.2750806774616241,0.3795623578079045
1701290502403953200,6.365953125,-0.0828138192217797,-0.2091162131667137,0.3853223826393485
1701290502414028300,6.3760283203125,0.001887932638451457,-0.2064279969960451,0.3009450404278934
1701290502424104000,6.38610400390625,0.07824051995687187,-0.26742051809728146,0.1970470051884651
1701290502434179000,6.396178955078125,0.14847667022161185,-0.3165975137203932,0.10630743446871638
1701290502444254200,6.406254150390625,0.21476970888376234,-0.2990250321507454,0.02564560564905405
1701290502454329900,6.416329833984375,0.258984113663435,-0.17251988217532635,-0.037737463850528
1701290502464405000,6.426405029296875,0.29017997385077177,-0.09912322205305099,-0.1570963953331113
1701290502474480000,6.436480224609375,0.3034172757603228,-0.12018413026034831,-0.28532456970885395
1701290502484556000,6.44655615234375,0.3103635147016495,-0.12521861729621886,-0.3755998839177191
1701290502494631200,6.456631103515625,0.27359358070902523,-0.08724632177650928,-0.4006485465869307
1701290502504706000,6.4667060546875,0.19490400181040166,0.06315408304929733,-0.42647360045611854
1701290502514782000,6.476781982421875,0.08325805585794151,0.2283171727210283,-0.39927389723286033
1701290502524857000,6.486857177734375,0.00520567888431251,0.30180618730187414,-0.41617593219503757
1701290502534932200,6.49693212890625,-0.05951368072032928,0.26788229039013384,-0.4374116124473512
1701290502545008000,6.507008056640625,-0.07575761709995567,0.1504880831092596,-0.44860842150524255
1701290502555083000,6.5170830078125,-0.07468216988816857,0.07025017879009246,-0.4020557830363512
1701290502565158100,6.527158203125,-0.0786310536444187,0.03216214793622493,-0.332123145762831
1701290502575234000,6.537234130859375,-0.05504661830887198,0.020742928299307822,-0.19323373051062226
1701290502585309000,6.547308837890625,-0.01784413811787963,-0.030220950740575788,-0.06600538082718849
1701290502595384000,6.557384033203125,0.036827363268285986,-0.09628945993185042,0.06271539937108754
1701290502605460200,6.567460205078125,0.060602060478925704,-0.11407938364446163,0.11129530588388442
1701290502615535000,6.57753515625,0.0077754563070833674,-0.059437692874670024,0.09858297769650816
1701290502625610200,6.5876103515625,-0.15897227220758794,0.005289923101663589,0.06374401176646352
1701290502635684900,6.597684814453125,-0.3863850434347987,-0.01872398969233036,0.018851999986171722
1701290502645761000,6.607760986328125,-0.5532534757196903,-0.12479250083863734,-0.003499240292608738
1701290502655836200,6.617836181640625,-0.5684957607761025,-0.22079905217587947,0.03816869487464428
1701290502665911000,6.6279111328125,-0.4871100015960633,-0.23594927503466603,0.062030924238264555
1701290502675987000,6.637987060546875,-0.4259269263587892,-0.13632102606892585,0.05238865114599466
1701290502686062000,6.64806201171875,-0.44683907374516124,-0.06739654292464256,0.05941153552010655
1701290502696137000,6.658136962890625,-0.4373018684625625,-0.042319384813308714,0.10118044684380292
1701290502706213000,6.668213134765625,-0.36635026340484617,-0.12223580209314823,0.17209332732632754
1701290502716288000,6.6782880859375,-0.24648718179240822,-0.2408405542075634,0.23710487481057643
1701290502726363100,6.688363037109375,-0.14590265501514077,-0.3526549155294895,0.3351388403221965
1701290502736439000,6.69843896484375,-0.1900457481242716,-0.41217794860005375,0.4462392081558704
1701290502746514200,6.70851416015625,-0.289700738966465,-0.4101934967845678,0.5789882209569216
1701290502756589000,6.718589111328125,-0.4054338811673224,-0.3857382699638605,0.7415111713834106
1701290502766665000,6.7286650390625,-0.4609865493021905,-0.30963468897044655,0.8051204508543014
1701290502776740000,6.738739990234375,-0.4013151938021183,-0.21314707611799238,0.7532794967189431
1701290502786815200,6.748815185546875,-0.3249978239275515,-0.08430150049626826,0.6608335604727268
1701290502796891000,6.758890869140625,-0.3857435306608677,0.07125731000602245,0.5349615938343107
1701290502806966000,6.768966064453125,-0.5269369850717485,0.1050870988935232,0.4337304397165775
1701290502817041200,6.779041259765625,-0.6312427243292331,0.11292086125910282,0.41577421952635046
1701290502827117000,6.789116943359375,-0.7227987259984016,0.17843290561139583,0.4290107177183032
1701290502837192000,6.79919189453125,-0.7835363955557346,0.21987550759017466,0.49832741505056616
1701290502847267000,6.80926708984375,-0.8586803377367556,0.22854513625800607,0.5419917847320437
1701290502857343000,6.819343017578125,-0.8755003935039043,0.1767997514516115,0.6052637950725853
1701290502867418000,6.829418212890625,-0.7593684612438082,0.10406477010846138,0.6740659670114517
1701290502877493200,6.8394931640625,-0.5453951634347438,0.01156184297800064,0.7896534171313047
1701290502887569000,6.84956884765625,-0.33191973214522,-0.06456394984722137,0.9240789848424493
1701290502897644000,6.85964404296875,-0.2207540439903736,-0.1743243012487888,1.0480240750715135
1701290502907719200,6.86971923828125,-0.21530381576046345,-0.322021292334795,1.18490814185068
1701290502917795000,6.879795166015625,-0.2189806045770645,-0.32223639639019963,1.5140670309804378
1701290502927870000,6.889869873046875,-0.08592924782857299,-0.11343290243446827,1.8335647961869834
1701290502937944300,6.8999443359375,0.09931363005861639,0.018519407030940054,1.8947931718707083
1701290502948020200,6.910020263671875,0.2930734302699566,0.07272738255858421,1.7609278683908283
1701290502958095400,6.920095458984375,0.35401086018308997,0.13706512243449687,1.7106204074330627
1701290502968170500,6.93017041015625,0.2587492819942534,0.37925299959778785,1.835661037813872
1701290502978246100,6.94024609375,0.008807575833797454,0.797135297319293,2.069631706251949
1701290502988321300,6.9503212890625,-0.35378187373280523,1.2769558725595473,2.2025867630191147
1701290502998396400,6.960396484375,-0.666527826591581,1.6903765146970748,2.24170895922631
1701290503008472300,6.970472412109375,-0.8652173382900655,1.9524965882986782,2.1745826115451754
1701290503018547200,6.980547119140625,-1.080023433661461,2.0427777477264404,2.0144836733952163
1701290503028622300,6.990622314453125,-1.4416883157290517,1.951695208787918,1.7462008393801747
1701290503038698500,7.000698486328125,-1.8708805274941025,1.6971335877418516,1.4016061884485185
1701290503048773400,7.0107734375,-2.238231492374092,1.4220377127110957,1.038878937846422
1701290503058848300,7.02084814453125,-2.4673709412634373,1.211273147815466,0.7840000675447285
1701290503068924400,7.03092431640625,-2.5319711314678193,1.0642167927205561,0.6244764450646937
1701290503078999300,7.040999267578125,-2.4301510715462267,0.9887205299705266,0.5397555501125753
1701290503089074400,7.051074462890625,-2.3056781580507755,0.9217255535840988,0.38283261165022847
1701290503099150300,7.061150390625,-2.1889035439729687,0.7790846768438816,0.1255051791526377
1701290503109225200,7.07122509765625,-1.9373896200597285,0.5541214907258749,-0.03093026805371046
1701290503119300400,7.08130029296875,-1.498489668750763,0.31207565238177776,-0.06200096749141812
1701290503129376500,7.09137646484375,-0.9663455434899777,0.13406067992150783,0.013666414041817187
1701290503139451400,7.101451416015625,-0.42059970345403996,-0.0777642076820135,0.13643851496875287
1701290503149526300,7.1115263671875,0.04026418758286163,-0.24649814157783984,0.27951339921206236
1701290503159602400,7.1216025390625,0.49396074427366254,-0.2787672570198774,0.40412747474387284
1701290503169677300,7.13167724609375,1.0117384174644946,-0.2808551692098379,0.41183571103364225
1701290503179752400,7.14175244140625,1.7751228363513945,-0.21874211964607237,0.17283260138630865
1701290503189828400,7.151828369140625,2.5591356172472235,-0.0672206018358469,-0.11191343778222798
1701290503199903200,7.1619033203125,2.900984476602077,0.06300853709876537,-0.35105069520324467
1701290503209978400,7.171978271484375,2.9266560934752226,0.23577976368665693,-0.545316545240581
1701290503220054300,7.18205419921875,2.7071470811098814,0.39306116019785403,-0.6596694851294159
1701290503230129200,7.192129150390625,2.403051321566105,0.47826107083857056,-0.8143126420915127
1701290503240204300,7.202204345703125,2.025273070695996,0.6029734921783209,-0.8883382477670907
1701290503250280400,7.212280517578125,1.5646072777807711,0.7244470777273178,-0.921406112371385
1701290503260355300,7.222355224609375,1.0998651022721082,0.7134294246286154,-1.0433388398647307
1701290503270430200,7.23243017578125,0.6578892506491393,0.6410059934526682,-1.2058224811941385
1701290503280506400,7.24250634765625,0.4340666128683835,0.5525228233575821,-1.3505603302136062
1701290503290581200,7.252581298828125,0.44484227390475567,0.4410989226579666,-1.38731272854954
1701290503300656400,7.262656494140625,0.5518091221302748,0.33187340878546234,-1.3791095483496785
1701290503310732300,7.272732177734375,0.6194229610674082,0.1569055489361286,-1.4665148600801825
1701290503320807200,7.28280712890625,0.5920983162902296,0.03045709758400917,-1.5093319652825592
1701290503330882300,7.29288232421875,0.548030188113451,-0.06099193657934665,-1.544219154268503
1701290503340958500,7.30295849609375,0.5654040053058416,-0.11281915445029735,-1.4991659605771301
1701290503351033000,7.313033203125,0.6006600276041776,-0.12459259435236453,-1.3851841920882462
1701290503361108200,7.323108154296875,0.6769948600701987,-0.10560556980967521,-1.3156474222645163
1701290503371184400,7.333184326171875,0.725216893056035,-0.11421440820097922,-1.2243752059727906
1701290503381259300,7.34325927734375,0.7517430809319019,-0.16175006635785102,-1.1800634782984851
1701290503391334400,7.35333447265625,0.6972177100181579,-0.28114158493578434,-1.1632663650155066
1701290503401410300,7.363410400390625,0.6234777894161642,-0.3845218799114227,-1.2496791585773228
1701290503411485400,7.3734853515625,0.51538975514099,-0.4108598517388105,-1.4324050852075219
1701290503421560300,7.383560302734375,0.37227263919115067,-0.3607230711728334,-1.6218910074919461
1701290503431636200,7.39363623046875,0.2304056694328785,-0.22581541903316973,-1.76092918356508
1701290503441711400,7.40371142578125,0.12752119515016674,-0.11798515891134738,-1.827370033200085
1701290503451786200,7.4137861328125,0.06873100639879703,-0.0649678544729948,-1.795629617807269
1701290503461862400,7.4238623046875,0.0067700786568224425,-0.02837444609105587,-1.731277849406004
1701290503471937500,7.4339375,-0.011962824994325638,0.04295709819495678,-1.6134414513155817
1701290503482012200,7.44401220703125,-0.02610986215993762,0.1196136368960142,-1.45877988191396
1701290503492088300,7.45408837890625,-0.009385960243642329,0.1410685128569603,-1.2626999681919813
1701290503502163500,7.46416357421875,-0.029257658666372297,0.10465747530460356,-0.994805402842164
1701290503512238300,7.47423828125,-0.027617928635329008,0.04714169040322304,-0.7054027700394392
1701290503522314200,7.484314208984375,0.013352233526110648,0.0034738135904073715,-0.47389556910544633
1701290503532389400,7.494389404296875,0.061109425479173654,0.050153147178888316,-0.3212681358799338
1701290503542464300,7.50446435546875,0.15366320601403713,0.04576163422167301,-0.14994097062051295
1701290503552540400,7.51454052734375,0.24973873093426227,-0.038945524466037745,-0.026917525281012055
1701290503562615300,7.524615234375,0.35777664245739577,-0.17139993823468685,0.000353051221370697
1701290503572690200,7.534690185546875,0.469124555311352,-0.2677279766112566,-0.013881518097221851
1701290503582766300,7.544766357421875,0.5736106195718049,-0.3134188836842775,0.009249766643345356
1701290503592841500,7.554841552734375,0.568386747443676,-0.4164326834350824,-0.033605332481861115
1701290503602916400,7.564916259765625,0.5055466987796128,-0.6230991653621196,-0.060092649652063845
1701290503612992300,7.5749921875,0.44459626325443385,-0.816924870416522,-0.07098316923975945
1701290503623067400,7.5850673828125,0.3722118489146232,-0.9025181642889976,-0.12165829446613788
1701290503633142300,7.595142333984375,0.3243476894557476,-0.8262707909107208,-0.2239581007286906
1701290503643218200,7.60521826171875,0.32016587372645733,-0.6198614986151456,-0.33097003020495175
1701290503653293300,7.615293212890625,0.3325514541774988,-0.3948965589314699,-0.3850552561357617
1701290503663368200,7.6253681640625,0.3620661563448608,-0.2797369788348675,-0.4141778902456164
1701290503673444400,7.6354443359375,0.38657588983178137,-0.3478922311723232,-0.48975978545248505
1701290503683519500,7.64551953125,0.4086895219624042,-0.5647925223439931,-0.5672513136729598
1701290503693594000,7.655593994140625,0.45312765249535436,-0.8477116383463144,-0.6102502051830292
1701290503703670300,7.665670166015625,0.4960048173218965,-1.0678922663629054,-0.545230620522797
1701290503713745400,7.675745361328125,0.5103723653703928,-1.137909220919013,-0.4547244201675057
1701290503723820300,7.6858203125,0.4547330418653786,-1.0584721115887163,-0.34420623613595963
1701290503733896200,7.695896240234375,0.33893750195279715,-0.9159007929533719,-0.21512889758497475
1701290503743971300,7.705971435546875,0.11750775065794586,-0.6757242556124925,-0.10215016865879296
1701290503754046200,7.716046142578125,-0.18797464093863964,-0.41994332190454003,0.05084843596667051
1701290503764122400,7.726122314453125,-0.4620715680599212,-0.15248539440631864,0.2075809664234519
1701290503774197200,7.736197265625,-0.6924392435699701,0.047502340409159655,0.31707652940899134
1701290503784272400,7.7462724609375,-0.8577740365467965,0.18106968385577202,0.3684183018505573
1701290503794348300,7.756348388671875,-1.0104647442668675,0.1632669006615877,0.32613311156779523
1701290503804423400,7.76642333984375,-1.186666968216747,0.08603519242107868,0.2092553293764591
1701290503814498300,7.776498291015625,-1.3678770834565162,0.007486556363105774,0.06910305458158254
1701290503824574200,7.78657421875,-1.4600615922875702,-0.013217793491482733,-0.05178016385883093
1701290503834649300,7.7966494140625,-1.469162451979518,-0.07750351091921329,-0.09232961639016866
1701290503844724500,7.806724365234375,-1.4135463632196188,-0.3208452342927456,-0.032708091381192204
1701290503854800100,7.816800048828125,-1.2526045445047318,-0.6340823316693306,0.05922054299265146
1701290503864875300,7.826875244140625,-1.0070533283881842,-0.7720318357229232,0.13065525539219378
1701290503874950400,7.836950439453125,-0.8285225153602659,-0.796491738718748,0.1543009193956852
1701290503885026300,7.8470263671875,-0.6685178313650191,-0.5165706354886294,0.08447364219278097
1701290503895101200,7.85710107421875,-0.36659225546717644,0.35619536461532114,0.012745499804615973
1701290503905176300,7.86717626953125,-0.17143047950342297,1.3175515023201703,-0.0885480520248413
1701290503915252200,7.877252197265625,-0.24714286922216414,1.7848305758953094,-0.33614129536300896
1701290503925327400,7.887327392578125,-0.5753711264383048,1.2809013953149317,-0.632692046354711
1701290503935402800,7.89740283203125,-0.6668313395828008,0.07907704384624957,-0.664620970056951
1701290503945478700,7.907478759765625,-0.4563163655340671,-0.6366676719874144,-0.24596768796294927
1701290503955553500,7.917553466796875,-0.35509763250648974,-0.5191764340728521,0.49825025816112756
1701290503965628700,7.927628662109375,-0.6611280864398926,0.13224223232269286,1.3931845431923866
1701290503975704600,7.93770458984375,-1.2392436892807484,1.0530354734927416,2.1367273665338753
1701290503985779500,7.947779541015625,-1.3449381064176558,1.868528849801421,2.4242551453754304
1701290503995854600,7.9578544921875,-0.7380494866222143,1.9552058472573757,2.022557966518402
1701290504005930800,7.9679306640625,-0.10746091535277665,1.435985574042797,1.3131807398900388
1701290504016005600,7.978005615234375,-0.022564883029460907,0.8609639186292887,0.523546319720149
1701290504026080500,7.98808056640625,-0.4813566257011145,0.45037820765674114,-0.3553197508245706
1701290504036156700,7.99815673828125,-1.2437351554811,0.18950316568017006,-1.0084989971518517
1701290504046231600,8.0082314453125,-2.0155928036808968,-0.052502925175428386,-1.2115011113524436
1701290504056306700,8.018306640625,-2.3886370117664337,-0.3172644531965256,-1.0244546911746264
1701290504066382600,8.028382568359374,-1.951380151489377,-0.4316571405738592,-0.6835156401410698
1701290504076457500,8.03845751953125,-0.8756476199548691,-0.31973522722423076,-0.3783364692747593
1701290504086532600,8.04853271484375,0.4212088117957115,-0.2265525011360645,-0.3781085057377815
1701290504096608500,8.0586083984375,1.7454940062850712,-0.24351415733098983,-0.5633876239821315
1701290504106683400,8.068683349609374,2.8308693223685024,-0.3408995958060026,-0.7285694183543324
1701290504116758500,8.078758544921875,3.3944086297810077,-0.6912509105682373,-0.7687459459200501
1701290504126834700,8.088834716796875,3.4691438450306653,-1.1242267325252293,-0.6073275957345963
1701290504136909800,8.098909912109375,2.9970594170004126,-1.1123182680666446,-0.12291180165857075
1701290504146984700,8.108984619140625,1.9986755711495876,-0.7345183898866177,0.71094959051162
1701290504157060600,8.119060546875,0.6565712268531322,-0.5127922859936952,1.5731351598903536
1701290504167135700,8.1291357421875,-0.46049164192471653,-0.41507951526045794,2.3589465146407482
1701290504177211600,8.139211669921876,-0.8200590767890215,-0.3582400221854448,2.891324375592172
1701290504187286500,8.14928662109375,-0.7015712290525435,-0.3239239110857248,2.8646693006396293
1701290504197361700,8.159361572265626,-0.6312339565008879,-0.15326163947582244,2.4103192667424675
1701290504207436500,8.1694365234375,-0.5922825868159532,0.08229892850220202,1.5588862697854637
1701290504217512700,8.1795126953125,-0.3658797232836485,0.3344371217936277,0.4551540437564254
1701290504227587600,8.189587646484375,-0.039864977398514745,0.45876901938319203,-0.6597603782832622
1701290504237662500,8.199662353515626,0.2976256867468357,0.39471068097054957,-1.4260641917482018
1701290504247738600,8.209738525390625,0.6760849056184292,0.23620237301290034,-1.7103285848796366
1701290504257813800,8.219813720703126,1.0514707083940504,0.1559393342524767,-1.6840043493166565
1701290504267889400,8.229889404296875,1.2359060692906378,0.15961831502616405,-1.5010504591494798
1701290504277964500,8.239964599609374,1.226489421647787,0.1933621791958809,-1.204474865977466
1701290504288039700,8.250039794921875,1.125627831494808,0.2742021410614252,-0.8573369603037834
1701290504298115600,8.260115478515624,1.1104723479390144,0.1936310592651367,-0.330033333876729
1701290504308190500,8.2701904296875,1.196274316126108,0.04694821365773678,0.35258652646839617
1701290504318265600,8.280265625,1.121752451366186,-0.05872516069114208,0.873634015110135
1701290504328341800,8.290341796875,1.089388570312783,-0.19941665692925453,1.1487284288361668
1701290504338416600,8.300416748046874,1.0408008458197116,-0.43851533590555186,1.1286124002635478
1701290504348491800,8.31049169921875,0.8607681768614798,-0.5217980147480964,0.9411629522427916
1701290504358566400,8.32056640625,0.7210767975766211,-0.5583464149445295,0.561950576916337
1701290504368642600,8.330642578125,0.5079015913426875,-0.5731546924978494,0.08086684987246989
1701290504378717700,8.3407177734375,0.2661293823082,-0.508225416469574,-0.3646756081908941
1701290504388792600,8.35079248046875,0.0184825821518898,-0.2900052748709917,-0.6870651493161917
1701290504398868500,8.360868408203125,-0.12693002432398498,-0.005284077882766723,-0.9036354778811335
1701290504408943600,8.370943603515625,-0.18237550575733183,0.2648334242135286,-1.0635992453441023
1701290504419019800,8.381019775390625,-0.1410171479959041,0.3762865510076284,-1.1449693685635924
1701290504429094700,8.3910947265625,-0.09074366237297654,0.2492448099374771,-1.2095257196262479
1701290504439169500,8.40116943359375,-0.14558233701959253,0.04564999054074287,-1.1730772726729513
1701290504449244400,8.411244384765626,-0.2375193008303642,-0.08515724054276942,-1.0799714112132788
1701290504459320600,8.421320556640625,-0.17217910591363905,-0.0868576147198677,-0.9430103336751461
1701290504469395700,8.431395751953126,-0.09389394309744238,0.07629121252000332,-0.7846075319185852
1701290504479471600,8.4414716796875,-0.01621814435124397,0.1922591863900423,-0.6662319123849272
1701290504489546500,8.45154638671875,0.00372223539352417,0.11347732609808445,-0.6260360955968499
1701290504499621600,8.46162158203125,0.017205840214341878,-0.04991173963844776,-0.5142686421565711
1701290504509697800,8.47169775390625,0.036070699682086704,-0.1003378585398197,-0.29080650825127957
1701290504519772400,8.4817724609375,0.03464446627125144,-0.05597615424394607,0.02893207997381687
1701290504529847600,8.49184765625,0.008819266271591186,-0.05197159477770328,0.30824893370047207
1701290504539923700,8.501923828125,0.021933453258126973,-0.15791151110827922,0.40545755430385466
1701290504549998600,8.51199853515625,0.08055880683660507,-0.2962017914235592,0.42279885746613144
1701290504560073700,8.52207373046875,0.1621286904118955,-0.3041799306958914,0.47337446784079074
1701290504570149600,8.532149658203124,0.19926921128258107,-0.1464712486833334,0.48896863507479427
1701290504580224500,8.542224609375,0.12707622786164283,0.054309097814559934,0.46899333014711736
1701290504590299600,8.552299560546874,-0.03571092645898461,0.07777531359791755,0.31637744122892614
1701290504600375600,8.56237548828125,-0.28231252841129895,-0.0066793316334486,0.06461378033831715
1701290504610450400,8.572450439453124,-0.5041711726427078,-0.09235445857048034,-0.15059782709404826
1701290504620525600,8.582525634765625,-0.6942844330452382,-0.06468553040027618,-0.27265739583745596
1701290504630601700,8.592601806640625,-0.9348832874514162,0.05047288065254688,-0.2810335945166647
1701290504640676600,8.602676513671875,-1.130167228490114,0.1260235039383173,-0.23330241378769276
1701290504650751500,8.61275146484375,-1.1054019128069281,0.010864508363604544,-0.1116873739413917
1701290504660827600,8.62282763671875,-0.7825529374763369,-0.1882423519641161,0.1469264451049268
1701290504670902800,8.63290283203125,-0.401787487488985,-0.2872428244203329,0.5938558274820447
1701290504680977700,8.642977783203126,-0.1235851708754897,-0.2845978628695011,1.0075351205557583
1701290504691053600,8.653053466796875,0.03892945011407137,-0.29656887117028236,1.2640686261966825
1701290504701128700,8.663128662109376,0.11970891396403312,-0.3880716813474893,1.3899259797878563
1701290504711203600,8.67320361328125,0.09449483160004019,-0.5168962141811847,1.3825482906267046
1701290504721279700,8.68327978515625,-0.058031625469028944,-0.6175859548985958,1.2466530887544154
1701290504731354600,8.693354736328125,-0.29401567955613134,-0.4926859020322561,1.1712950654312968
1701290504741429500,8.703429443359376,-0.5526176620341837,-0.2703267609328031,1.1362458177514374
1701290504751505700,8.713505615234375,-0.7031906469479203,-0.05817804820239544,1.0677006893135608
1701290504761580800,8.723580810546874,-0.7140133619964122,0.10137596941590309,0.8775608331650495
1701290504771655700,8.73365576171875,-0.7002597080625593,0.14080138635337353,0.6469800994262099
1701290504781731600,8.743731689453124,-0.6629623891949653,0.13360709093511103,0.48038946116939185
1701290504791806700,8.753806640625,-0.6425182977117597,0.13319208039343355,0.4570923183426261
1701290504801881600,8.763881591796874,-0.6531643410190939,0.16169102964699267,0.5758022843971848
1701290504811957500,8.77395751953125,-0.753115538328886,0.11602116536200045,0.766558665008843
1701290504822032600,8.78403271484375,-1.014305637603998,-0.07482990779578685,0.9409531088843941
1701290504832107500,8.794107421875,-1.4310522092938422,-0.1755675793081522,1.0970425191320479
1701290504842183700,8.80418359375,-1.7881429153136907,-0.17493337305784223,1.4251418162062763
1701290504852258600,8.814258544921875,-1.7297843959778547,0.17234569465219973,2.0330248538665474
1701290504862333400,8.82433349609375,-1.21341015984416,0.8607844704091548,2.5799907737493513
1701290504872409600,8.83440966796875,-0.6086474461615086,1.4275152673393487,2.720056831565499
1701290504882484700,8.844484619140625,-0.21858824425861237,1.7696078723222015,2.6334873861372468
1701290504892559600,8.8545595703125,-0.10203034167140722,1.8998159684687852,2.6198957908973095
1701290504902635500,8.864635498046875,-0.40673809563368557,1.8657552934348582,2.752984118655324
1701290504912710700,8.874710693359376,-1.0304486708924174,1.7983295244157314,2.9883526711925863
1701290504922785500,8.88478564453125,-1.6524597487568855,1.8079963474273681,3.1240611183211207
1701290504932862000,8.894862060546876,-1.936465783213079,1.9466537074893713,3.0976106260299683
1701290504942936800,8.904936767578125,-1.998441762393713,2.0123516298025845,2.889803741896152
1701290504953012000,8.915011962890626,-2.036170166154951,1.9765449878841637,2.557600662764907
1701290504963088100,8.925088134765625,-2.140247795744985,1.7769027055054902,2.0892460689127446
1701290504973163000,8.9351630859375,-2.177989351248741,1.4361194295555353,1.5537451075047253
1701290504983238000,8.94523779296875,-1.9248823129251598,1.2679285164952276,1.123476206418872
1701290504993314000,8.95531396484375,-1.6200037324406205,1.253150049558282,0.7586230497039854
1701290505003389000,8.965388916015625,-1.510872034331411,1.2342688234776258,0.24604879037514327
1701290505013464000,8.975464111328124,-1.5492248536013067,1.1449117931574582,-0.27106530434042214
1701290505023540000,8.9855400390625,-1.4899837062120436,1.0071902526408434,-0.6190954826787114
1701290505033614800,8.99561474609375,-1.0164414805889128,0.6322568698078394,-0.7479175312943757
1701290505043690000,9.00568994140625,-0.24875614963769913,0.24062954180538654,-0.49548868449330324
1701290505053766000,9.015765869140624,0.5951952593922615,-0.02515139239132404,-0.1436351484745741
1701290505063840800,9.0258408203125,1.44644267064929,-0.09408756597340107,0.020881606117635964
1701290505073916000,9.035916015625,2.3034207345128057,0.029231939703226087,0.023350334318727253
1701290505083992000,9.045991943359375,3.1473470091015097,0.17074527371823786,-0.057659577286243435
1701290505094067000,9.05606689453125,3.5165994236886498,0.35466976248323917,-0.15487696571797133
1701290505104141800,9.066141845703125,3.1166625325024127,0.444173507797718,-0.4775774724885821
1701290505114218000,9.076218017578125,2.6289947508931157,0.33907238037884235,-0.9531874442964792
1701290505124292900,9.08629296875,2.182034827247262,0.2773392700433731,-1.289728260371089
1701290505134368000,9.096367919921875,1.6396832692921162,0.4339303462028503,-1.4381646716475487
1701290505144444000,9.10644384765625,1.0963777716130017,0.5811164651572704,-1.5458973166137933
1701290505154518800,9.116518798828125,0.5716629926353692,0.71304773183465,-1.8581494946062564
1701290505164594000,9.126593994140626,0.2896861259192228,0.798131322619319,-2.2607556050017474
1701290505174670000,9.136670166015625,0.19154548516273498,0.7050298450738192,-2.5221622696369885
1701290505184745000,9.146744873046876,0.2781844886958599,0.43954760156273837,-2.641906254914403
1701290505194819800,9.15681982421875,0.6369665088035166,0.21723463769257068,-2.577935887046158
1701290505204896000,9.16689599609375,1.0720086156405508,0.024219664499163625,-2.3717054584488273
1701290505214971000,9.176970947265625,1.3155500993698834,-0.1091395891547203,-2.1613637951403857
1701290505225046000,9.1870458984375,1.3766338058859109,-0.2574690329253673,-1.8922344272986054
1701290505235122000,9.197121826171875,1.353171681755781,-0.4034726640969515,-1.4517588972359894
1701290505245197000,9.207197021484374,1.3241378949731588,-0.538757332855463,-1.0265370504066347
1701290505255272000,9.21727197265625,1.3584393930256367,-0.6098784492611885,-0.6683660018041729
1701290505265347800,9.227347900390624,1.406343299973011,-0.6026379766136407,-0.3769786249250173
1701290505275423000,9.237423095703125,1.3937556210786104,-0.5733113443642854,-0.09739274499863386
1701290505285497900,9.247497802734374,1.2580728929132223,-0.5689893895119428,-0.01260755263864994
1701290505295574000,9.257573974609375,1.0975039991639555,-0.5370359158903361,-0.15254267755150794
1701290505305649200,9.267649169921874,0.9691945762455463,-0.4668395131140947,-0.38662119027823205
1701290505315723800,9.277723876953125,0.8784526674382388,-0.409299762815237,-0.7060849070847034
1701290505325800000,9.287800048828124,0.7773189823456108,-0.34924072317183014,-1.044694053865969
1701290505335875000,9.297875,0.5986303484074771,-0.34217852970063684,-1.2970467666909098
1701290505345950000,9.307949951171874,0.3696146720282733,-0.38074177685081956,-1.4800243299946187
1701290505356025900,9.31802587890625,0.181079036206007,-0.3915075010150671,-1.6159838292747735
1701290505366101000,9.32810107421875,-0.030927053183317184,-0.2917284454017877,-1.6417705969601868
1701290505376175900,9.33817578125,-0.28308804282844063,-0.14270926580131052,-1.562261591437459
1701290505386252000,9.348251953125,-0.5049759131543338,-0.03814706756472588,-1.376984519019723
1701290505396327000,9.358326904296876,-0.5298357752531767,0.06985738008022307,-1.2070642979487776
1701290505406401800,9.36840185546875,-0.5017582662820815,0.22917291276752946,-1.120631922903657
1701290505416478000,9.37847802734375,-0.48360418543219563,0.357180283999443,-0.9886743527412414
1701290505426553000,9.388552978515625,-0.45243557857796546,0.35928806993365286,-0.7911965549200772
1701290505436628000,9.3986279296875,-0.3801465874366462,0.22093407673239707,-0.6569266161620616
1701290505446703900,9.408703857421875,-0.2815858215719461,0.07723521537184715,-0.5907394490271807
1701290505456779000,9.418779052734376,-0.15143500857055187,-0.044370472124218935,-0.5477233141213655
1701290505466854000,9.42885400390625,-0.018697101685404775,-0.16158347761929034,-0.49484717171937226
1701290505476929800,9.4389296875,0.10072086650803684,-0.2886848399221897,-0.4157473315194249
1701290505487005000,9.4490048828125,0.1869867989450693,-0.4213479280054569,-0.3325587607011199
1701290505497079800,9.459079833984376,0.18878011210262774,-0.585037437993288,-0.28662673834860325
1701290505507156000,9.469156005859375,0.2561854228556156,-0.8258803302884101,-0.27023586777895686
1701290505517231000,9.479231201171874,0.37028117311298847,-1.018733390918374,-0.2503518943965435
1701290505527305700,9.4893056640625,0.4349574972935021,-1.0974492002367973,-0.19901392134726045
1701290505537382000,9.4993818359375,0.49777241151630874,-1.0290630617529153,-0.017110709276795387
1701290505547457000,9.50945703125,0.43167716044858095,-0.8790525330275296,0.21874387321174144
1701290505557532000,9.519531982421874,0.24342311804667113,-0.8507628426104783,0.4991267487347126
1701290505567607800,9.52960791015625,0.004348842859268188,-0.8849562041133642,0.7877741792559623
1701290505577683000,9.539682861328124,-0.16075521010160446,-0.9342804992526769,0.8905281590268015
1701290505587757800,9.5497578125,-0.2185585797727108,-0.9934458049267529,0.9193123549625277
1701290505597834000,9.559833984375,-0.18548107055723667,-0.9562170212507247,0.782207777300477
1701290505607908900,9.569908935546875,-0.06121916946396231,-0.7630348747968674,0.4944269004806876
1701290505617984000,9.57998388671875,0.10596095911860465,-0.5906044244706631,0.2331514610096812
1701290505628060000,9.590059814453125,0.25747604718804357,-0.4788894318699836,0.007879939594864846
1701290505638135000,9.600135009765625,0.23967794016897678,-0.35201077240705486,-0.2411249241068959
1701290505648210200,9.610210205078126,0.008068301773816346,-0.26665187181234357,-0.4735121227458119
1701290505658285800,9.620285888671875,-0.39778511997982857,-0.21948329340219497,-0.6670762542545795
1701290505668361000,9.63036083984375,-0.7736207123495638,-0.3303285174310207,-0.85895637819916
1701290505678436000,9.64043603515625,-0.9204974730938672,-0.5021861363053322,-0.8826140249013901
1701290505688511700,9.65051171875,-0.8960824321530759,-0.7786041998505592,-0.8032333219334483
1701290505698587000,9.6605869140625,-0.78107833487913,-1.033634607452154,-0.7147942832410336
1701290505708662000,9.670662109375,-0.6999110407553613,-1.1075386325746774,-0.547177662937343
1701290505718738000,9.680738037109375,-0.7060720476031302,-0.9757716165482997,-0.4029343194365501
1701290505728813000,9.69081298828125,-0.5930424652725458,-0.862207196688652,-0.3514107606872916
1701290505738888000,9.700887939453125,-0.3873356221579015,-0.9707815531760453,-0.43552316835224625
1701290505748963800,9.7109638671875,-0.17558306913822888,-1.0378729756742715,-0.6589060995414853
1701290505759039000,9.7210390625,0.35812136424183844,0.0074193363457918165,-1.0685013381719588
1701290505769115000,9.731114990234374,1.0533868442136793,1.890720807865262,-1.4703978389933705
1701290505779189800,9.741189697265625,1.2153216925539077,2.924429649597406,-1.8774451467067002
1701290505789265000,9.751264892578124,0.7368909642368555,2.1882406961500642,-2.2984692495852705
1701290505799341000,9.761341064453125,0.6085882633201778,0.4811316578388214,-2.3573314806595445
1701290505809416000,9.771416015625,1.00332897410281,0.23739421314597128,-1.738601616422832
1701290505819490800,9.78149072265625,0.5194915644366294,1.8221832782119511,-0.7658928945764899
1701290505829567000,9.79156689453125,-1.5144552996456622,3.2622078985124823,0.5696756182104349
1701290505839642000,9.80164208984375,-3.928806598383188,3.9981016684055324,2.0942495762884614
1701290505849717000,9.811717041015624,-4.242216129717231,3.696532796990871,3.2573455531731246
1701290505859793000,9.82179296875,-3.0481945609539745,2.4760329711467026,3.424262208513915
1701290505869868000,9.831867919921875,-2.5522803445249793,0.830382902404666,2.9380472560614344
1701290505879943000,9.84194287109375,-2.16756557238996,-0.5766103859096765,2.0328382452532647
1701290505890018800,9.852018798828125,-1.2680074269503354,-1.4168500809401272,0.8783312330156564
1701290505900094000,9.862093994140626,-0.4443751678496599,-1.6728759293198585,0.009629705871641636
1701290505910168800,9.8721689453125,0.23339432985484598,-1.39578917273283,-0.638840924373269
1701290505920245000,9.882244873046876,0.9786205762386322,-0.8566729434370994,-0.9626809565678238
1701290505930320100,9.892320068359375,1.9513135159939525,-0.3659825991362333,-0.960155529743433
1701290505940395500,9.9023955078125,3.0250071621119976,-0.16265373719930648,-0.8946937542736529
1701290505950471700,9.9124716796875,3.776213651949167,-0.06739946553409099,-0.7355500710219144
1701290505960546800,9.922546875,3.9047447547942395,-0.06981646354794502,-0.4983312144428491
1701290505970621700,9.93262158203125,3.4174159958809613,-0.2789981431663036,-0.25095219837725163
1701290505980697600,9.942697509765624,2.3825381103694436,-0.6265338159859181,0.257092893089354
1701290505990772700,9.952772705078125,0.8399947803586721,-0.8400643384635448,1.2632231152832507
1701290506000847600,9.96284765625,-0.8559148185461759,-0.8072334974855184,2.279638000126183
1701290506010923500,9.972923583984375,-1.588130776709318,-0.7169406476199627,3.061021893823147
1701290506020998700,9.98299853515625,-0.9912094241768121,-0.6290414148926734,3.1272558227092024
1701290506031073800,9.99307373046875,-0.20281212632013484,-0.41138007622063155,2.3212603425860405
1701290506041149700,10.003149658203125,0.14743044910430908,-0.015150807380676269,1.0617807977452873
1701290506051224800,10.013224853515625,0.26097207261025906,0.35136195310950274,-0.20879677195399998
1701290506061299700,10.0232998046875,0.3405354386687279,0.5276397265136241,-1.3399959738403557
1701290506071375600,10.033375732421876,0.4656687157690525,0.5383335544854402,-2.1392222520895303
1701290506081450800,10.04345068359375,0.6384498792290687,0.4024818994939327,-2.5352584825754163
1701290506091526000,10.05352587890625,0.5868015250563621,0.3796773624897003,-2.424546383406967
1701290506101601500,10.0636015625,0.4133341694304719,0.49423020886480806,-1.9773152416042983
1701290506111676700,10.0736767578125,0.10761749415397644,0.6686375122219324,-1.6208764236219226
1701290506121751800,10.083751708984375,-0.26074122299645097,0.8787830684363841,-1.3222751698412
1701290506131827700,10.09382763671875,-0.393663838798739,0.9160539376884699,-0.597577770614624
1701290506141902600,10.103902587890625,-0.19099018936753273,0.7024667165875434,0.1827959231264889
1701290506151977700,10.113977783203126,-0.01025952820777893,0.3420411670565605,0.5678665229618549
1701290506162053600,10.1240537109375,0.15965740492753683,-0.03677519468963146,0.7589940749734639
1701290506172128800,10.134128662109376,0.4211982173364609,-0.22271336136460304,0.9616621349141001
1701290506182203600,10.14420361328125,0.7233458384871483,-0.3042529959321022,1.1370900134906172
1701290506192279600,10.154279541015624,0.8263269050121307,-0.3861696471184492,1.149439645845443
1701290506202354700,10.164354736328125,0.7586356899898499,-0.48514673869907854,1.0829665013760328
1701290506212429800,10.174429931640624,0.5450152972716837,-0.5728624315530061,0.966988882894814
1701290506222505700,10.184505615234375,0.327239976831153,-0.6528828937292098,0.7867720164760946
1701290506232580600,10.19458056640625,0.18077157769203184,-0.8049182062804698,0.4827133740723133
1701290506242655700,10.20465576171875,0.16893376731686294,-0.9029121320426463,0.23894991815537212
1701290506252732000,10.21473193359375,0.28413017229251564,-0.7632026325792074,0.0874057501219213
1701290506262806500,10.224806640625,0.45664135970473285,-0.477657844248414,-0.011481763479113578
1701290506272881700,10.234881591796874,0.5306266333699226,-0.2913689644396305,-0.1615117275573313
1701290506282957800,10.244957763671875,0.5585037974633276,-0.24975100589394567,-0.26885098929181694
1701290506293032700,10.25503271484375,0.5527928724706173,-0.19514497095942496,-0.36624344202950593
1701290506303107800,10.26510791015625,0.5486252313971519,-0.12579320231378077,-0.42582814215943215
1701290506313183700,10.275183837890625,0.418005631840229,-0.030986674416065216,-0.4565001976683736
1701290506323258600,10.285258544921875,0.21419198206104337,0.02736263870000839,-0.5114049232885242
1701290506333333800,10.295333740234375,-0.08932561226859688,0.004701309558749199,-0.5559653650268912
1701290506343409700,10.30540966796875,-0.38646497680321334,-0.018629297146201134,-0.5701452815487981
1701290506353484500,10.315484619140625,-0.6069324589371681,-0.018642741149663924,-0.6165275318868458
1701290506363559700,10.3255595703125,-0.6298866335451603,-0.029133155503869055,-0.5976030511863529
1701290506373635800,10.3356357421875,-0.5259948819160462,-0.016457213804125785,-0.49324879661202425
1701290506383710700,10.345710693359376,-0.33978272060528397,0.047566053295135496,-0.24361893287971614
1701290506393785600,10.35578564453125,-0.22690087618231772,0.07120762564539909,0.09219795283451676
1701290506403861800,10.36586181640625,-0.1483621769964695,0.02473579732775688,0.3839588392011821
1701290506413936600,10.3759365234375,-0.08471490360274911,-0.02172024889886379,0.622145517899096
1701290506424011800,10.38601171875,-0.01574921166524291,-0.08356909456849097,0.7707283519089222
1701290506434087700,10.396087646484375,-0.02963540593758225,-0.17574001326560973,0.7757946953877807
1701290506444162600,10.40616259765625,-0.21095146576985715,-0.2903635867893696,0.7382236741453408
1701290506454237700,10.41623779296875,-0.49794323803856966,-0.3354670493632555,0.6507336067408322
1701290506464313900,10.42631396484375,-0.7753964898504316,-0.332273221758008,0.462912256667763
1701290506474388500,10.436388427734375,-0.8988334844268858,-0.28402795402705666,0.26885990325063464
1701290506484464600,10.446464599609374,-0.8277310727216303,-0.14624094705879687,0.18183657657504082
1701290506494539800,10.456539794921875,-0.5858534305512905,-0.01609305666685104,0.13970482328832148
1701290506504614700,10.46661474609375,-0.3387795349121094,0.008636895442008971,0.25155206396654245
1701290506514690600,10.476690673828125,-0.17831746253818273,-0.009787819042801857,0.47617008990868925
1701290506524765700,10.486765625,-0.05448007046729326,-0.09632453124523162,0.7674534218914807
1701290506534840600,10.496840576171875,0.06925386122912168,-0.2283908224791288,0.9060491148941219
1701290506544916700,10.506916748046875,0.17034692205041646,-0.26667583720982074,0.9713627140648663
1701290506554991600,10.51699169921875,0.1435974468126893,-0.21165070008039474,0.9503909454457461
1701290506565066500,10.52706640625,-0.05428820115700364,-0.11028759014606475,0.8942105008013546
1701290506575142700,10.537142578125,-0.2951858923792839,0.05878185931444168,0.8030559195399284
1701290506585217800,10.5472177734375,-0.6141559804499149,0.20051088190674782,0.6375020769849419
1701290506595293000,10.55729296875,-0.929759514696896,0.2681640299409628,0.4109852316841483
1701290506605368600,10.56736865234375,-1.1584311999440193,0.2640986801981926,0.18375483128651976
1701290506615443700,10.577443603515626,-1.2457565783061086,0.252919114536047,0.0660310997903347
1701290506625518800,10.587518798828125,-1.2406504873387514,0.25410978562533854,-0.02905468344017863
1701290506635594500,10.597594482421876,-1.246290831313282,0.24153555073440072,0.02336509349644184
1701290506645669600,10.607669677734375,-1.31163058783859,0.2844207527369261,0.2880379203207791
1701290506655744800,10.617744873046876,-1.3809797261357306,0.2616881119251251,0.7152538635767995
1701290506665820700,10.627820556640625,-1.3159376373827456,0.03015782237648964,1.1753116075962782
1701290506675895800,10.637895751953126,-1.0790719781555236,0.11520517280399799,1.8909698141902684
1701290506685970700,10.647970703125,-0.7513502822220325,0.6523053861021996,2.643088158175349
1701290506696046600,10.658046630859374,-0.5744217898242175,1.046352050206065,3.041308308571577
1701290506706121700,10.668121826171875,-0.5472402067795396,1.0299053577959536,2.989448357474804
1701290506716196900,10.67819677734375,-0.5273978805817663,0.8387772212624549,2.823994175902009
1701290506726272500,10.6882724609375,-0.4861807579219341,0.9711340198755264,2.8284833040148016
1701290506736347600,10.69834765625,-0.3510441193319857,1.4040326849430798,2.85547301774919
1701290506746422800,10.7084228515625,-0.267242238920927,1.9709668954908848,2.7431612282991407
1701290506756498700,10.718498779296874,-0.2689147021777928,2.462007368403673,2.5690613834559914
1701290506766573600,10.728573486328125,-0.5240716587685048,2.661716286277771,2.3017085237674415
1701290506776648700,10.738648681640624,-1.1477625064134598,2.621674783268571,1.9656196892440319
1701290506786724900,10.748724853515625,-2.0218201537631453,2.383465746608376,1.6842798052571712
1701290506796799700,10.7587998046875,-2.845474770826101,1.968021489688754,1.3104426932282744
1701290506806875000,10.768875,-3.086937256324291,1.3700111728757618,0.8643196587979793
1701290506816950800,10.77895068359375,-2.8072914629042147,0.7605319520652294,0.40930867677405475
1701290506827025700,10.789025634765625,-2.4100948103368283,0.27748540051579473,0.08317600359767675
1701290506837100800,10.799100830078125,-2.189395711404085,-0.0497270307213068,-0.17342676788717507
1701290506847176700,10.8091767578125,-2.1225264072239396,-0.19766426030397413,-0.28177842153459787
1701290506857251600,10.81925146484375,-1.9557588049650192,-0.3033808892726898,-0.28061317714750766
1701290506867326700,10.82932666015625,-1.3555623762845992,-0.5495739104241132,-0.17629793940931557
1701290506877403000,10.83940283203125,-0.2834521999657154,-0.7536100438475608,0.06924246305227279
1701290506887477800,10.849477783203126,0.7639011362373829,-0.8506102823972701,0.4405588244318962
1701290506897552600,10.859552734375,1.3776087883979082,-0.9205354670166969,0.6477316484458744
1701290506907628800,10.86962890625,1.5911235287845134,-0.8104974677175283,0.7189283143058419
1701290506917703700,10.87970361328125,1.739066019064188,-0.6268903743386268,0.6458484650477767
1701290506927778800,10.88977880859375,1.992799957114458,-0.24241700974404812,0.3225365483805537
1701290506937853200,10.899853271484375,2.1619477325081826,0.24318097985386847,-0.22355507288575172
1701290506947928000,10.909927978515626,2.146841933313012,0.6900333514720202,-0.8923857695922255
1701290506958003000,10.9200029296875,2.059524299865961,1.0971908415615559,-1.4654068988382816
1701290506968079000,10.9300791015625,2.009167154547572,1.4630255566596984,-1.7380168022722005
1701290506978154200,10.940154296875,1.8612977295041082,1.6114742428958415,-1.8462062510952353
1701290506988230100,10.950230224609374,1.5894937356255947,1.3982938490301369,-1.9073577621504663
1701290506998305000,10.960304931640625,1.355764036336541,0.9474030156761407,-1.8106234810605644
1701290507008380200,10.970380126953126,1.2884703692644834,0.4837053077191114,-1.5100795687794684
1701290507018456300,10.980456298828125,1.333755618146062,0.18800503607690333,-1.1509332454040646
1701290507028531200,10.99053125,1.4343740471929312,0.08303834869265556,-0.7151426582872867
1701290507038606000,11.000606201171875,1.5236254251815378,0.03642623512148857,-0.40664194178283214
1701290507048682200,11.01068212890625,1.5246091755218802,-0.04803425532877445,-0.13797756110429762
1701290507058757000,11.020757080078125,1.5370907636933029,-0.1395464178562164,0.12686521545946597
1701290507068832300,11.030832275390624,1.5043715663962065,-0.17135434552729129,0.3189320941478014
1701290507078908200,11.040908203125,1.490844706955552,-0.16064356642067432,0.29399609807282684
1701290507088983000,11.050983154296874,1.4028589649885892,-0.18587270022332666,-0.03397211996763944
1701290507099058200,11.06105810546875,1.3104441545329988,-0.2220300552755594,-0.6438534918382763
1701290507109134000,11.071134033203125,1.2054179920464754,-0.26353753918409345,-1.3324652860745787
1701290507119209000,11.081208984375,1.0217999388821422,-0.2358463991820812,-2.0014637405633926
1701290507129284000,11.0912841796875,0.8357892914928495,-0.16914543730616569,-2.631219148944318
1701290507139360300,11.1013603515625,0.7238679626651108,-0.12771569480895995,-3.078019498114288
1701290507149435100,11.11143505859375,0.5668091228634119,-0.1414554663479328,-3.3761537189051505
1701290507159510000,11.121510009765625,0.3902500482998788,-0.22246377051770685,-3.508279923632741
1701290507169586200,11.131586181640625,0.22278657273128627,-0.2377811666369438,-3.407271033963561
1701290507179661000,11.1416611328125,0.04559285352602601,-0.19941607240736484,-3.1610835657700895
1701290507189736200,11.151736083984375,-0.08961948064863681,-0.18804244547784327,-2.8301328247874973
1701290507199812000,11.16181201171875,-0.20177578727602957,-0.267065128788352,-2.385425063982606
1701290507209887000,11.171886962890625,-0.23248364475071429,-0.30572248396277424,-2.004028330354392
1701290507219962000,11.181962158203126,-0.20429054657593368,-0.19683716183006764,-1.7387986002996563
1701290507230038300,11.192038330078125,-0.20236440081894397,-0.03985562504827976,-1.681761538825929
1701290507240113000,11.20211279296875,-0.24583061757981775,0.04668167167603969,-1.6994889186963438
1701290507250188000,11.21218798828125,-0.2997720511257648,0.08356909456849097,-1.7135466701433062
1701290507260264200,11.22226416015625,-0.32781741139292714,-0.026938860329985617,-1.6823147887945173
1701290507270339000,11.232339111328125,-0.27268706032335754,-0.27367490231692787,-1.6110793983593583
1701290507280414200,11.242414306640624,-0.2032869224913418,-0.4811836802870035,-1.5316490110307932
1701290507290490000,11.252489990234375,-0.10605974331796168,-0.5428443099081516,-1.3976122965067623
1701290507300565000,11.26256494140625,-0.11312266744151711,-0.5947855095475911,-1.1474807668626308
1701290507310640000,11.27264013671875,-0.23069208515882492,-0.7183668810307979,-0.7661769722148776
1701290507320716000,11.282716064453124,-0.3019492490343749,-0.8433183718234301,-0.3400155064478516
1701290507330791000,11.292791015625,-0.37546266740411516,-0.8858183739006519,0.12472002012431621
1701290507340866000,11.302865966796874,-0.36122210673615335,-0.7814648499786854,0.5793854035809636
1701290507350942200,11.312942138671875,-0.25494550579711794,-0.531979801544547,1.019031789343059
1701290507361017300,11.323017333984374,-0.18220190275609494,-0.3110720282971859,1.5373776178106664
1701290507371093000,11.333093017578125,-0.3298883724480867,-0.3204278856635093,2.2169591333732006
1701290507381168000,11.343168212890625,-0.6534826131880282,-0.6254378374427557,3.0294921985715626
1701290507391243300,11.3532431640625,-0.9880120894402264,-0.9372112920075655,3.6992388410791754
1701290507401319000,11.36331884765625,-1.1323552400536834,-1.0402794522941112,4.156747631268203
1701290507411394000,11.37339404296875,-1.2231864345796406,-0.9392688090592622,4.12963633698076
1701290507421469200,11.38346923828125,-1.2905191184878348,-0.6894201880097389,3.5781507477164265
1701290507431545000,11.393545166015626,-1.492221694397181,-0.16161211919188498,2.5752909254953265
1701290507441620200,11.4036201171875,-1.4226631511330603,0.333603009057045,1.387646490548551
1701290507451695000,11.413695068359376,-1.0401970347076654,0.15252455737292767,0.33795769713521
1701290507461771000,11.42377099609375,-0.7019435694962739,-0.9790531224370003,-0.549703089761734
1701290507471846100,11.43384619140625,-0.30326442328616976,-2.130243265211582,-1.316028530536592
1701290507481921300,11.44392138671875,-0.11082520415410399,-2.5718536445230242,-1.8445342262297868
1701290507491997000,11.453996826171876,-0.21738427529633045,-1.8079753046393394,-2.056983675472438
1701290507502072000,11.464072021484375,-0.04358019852936268,-0.03317804698050022,-2.04789786721915
1701290507512147200,11.474147216796876,0.2015221047759056,1.4285633150875567,-2.0567776315063235
1701290507522223000,11.48422314453125,0.07625504522807895,1.7336533463656902,-2.3250609039127825
1701290507532298000,11.494298095703124,0.0035914486207067964,0.9572416881233453,-2.6448572136744857
1701290507542373000,11.504373046875,0.5292782144356518,0.5725199017256498,-2.535630530758202
1701290507552449300,11.51444921875,0.7983768218129873,1.4737041870623826,-1.9688705077335238
1701290507562524200,11.524524169921875,-0.1146294187426567,2.7106027745217083,-1.1899904135510324
1701290507572599300,11.534599365234374,-1.7459090168267488,3.6018110247671604,-0.08309972349107266
1701290507582675200,11.54467529296875,-2.4604759210526943,3.8174493331789967,1.1802329896464943
1701290507592750000,11.55475,-1.8246213190138338,3.2794793513089417,1.983059192083776
1701290507602825200,11.5648251953125,-1.4340940612077713,2.1460727025061845,2.2010136684834958
1701290507612901000,11.574901123046875,-1.488410757806897,0.7107441310673952,2.186820600219071
1701290507622976000,11.58497607421875,-1.2210532950084656,-0.5040741420090198,1.8339897436007857
1701290507633051100,11.595051025390624,-0.4728173454146832,-1.1840712526351214,1.1848097960427402
1701290507643127300,11.605127197265626,0.3026596623260528,-1.4457050040245056,0.5944347964137793
1701290507653202200,11.6152021484375,0.9974668040711432,-1.4368968436688183,0.024094284553825854
1701290507663277000,11.625277099609375,1.972990656403452,-1.1515320880800486,-0.569884292525053
1701290507673353200,11.635353271484375,2.946608748179674,-0.7126882508724928,-1.020057332998514
1701290507683428000,11.645427978515626,3.3082220461905,-0.4798989011734724,-1.2508403113111852
1701290507693503200,11.655503173828125,3.0709909146517513,-0.5905068093150854,-1.3069541204601525
1701290507703579100,11.6655791015625,2.449375850367546,-0.7657815431565046,-1.134169742129743
1701290507713654000,11.675654052734375,1.6047376281172037,-0.9488695810973644,-0.56058338021636
1701290507723729200,11.685729248046876,0.4274702833432704,-0.933146526786685,0.6780757871747016
1701290507733805000,11.69580517578125,-0.972902783113718,-0.6613169600754976,1.9788158554255961
1701290507743880000,11.7058798828125,-2.1417659452229736,-0.23943828619420526,3.0850311304420233
1701290507753955000,11.715955078125,-2.2097627921283243,0.1573410177439451,3.5924426001802083
1701290507764031200,11.72603125,-1.3706559005200862,0.306674085599184,3.202273069770634
1701290507774106000,11.736106201171875,-0.41452246589958663,0.26161153955757616,1.973197138760984
1701290507784182000,11.74618212890625,0.3133721219331026,0.21114567316770552,0.326892697763443
1701290507794257200,11.756257080078125,0.774881964457035,0.46031800239086146,-1.0107871080890298
1701290507804332000,11.76633203125,0.9667559509217738,0.8394307167351246,-1.9403060920283197
1701290507814407200,11.7764072265625,1.073034889948368,1.1129928063273429,-2.632847626928985
1701290507824483000,11.786483154296874,0.8129320013880729,1.1826081943452358,-2.94433115863651
1701290507834558000,11.796557861328125,0.25375264275074005,0.9880547595381736,-2.7079408618360756
1701290507844634000,11.806634033203125,-0.20619477276206016,0.6859837838202715,-2.3023495981499553
1701290507854709200,11.816709228515625,-0.3067266560366377,0.3202519445747137,-1.8546248276114463
1701290507864784100,11.8267841796875,0.004691372686624526,0.047750762212276456,-0.49954848127812146
1701290507874860000,11.836860107421876,0.5230289447825401,-0.10925766257643699,0.6933350233659148
1701290507884935200,11.84693505859375,1.012986956220865,-0.2772124287933111,1.2687158674806356
1701290507895010000,11.857010009765625,1.4733891297638415,-0.48228784213662146,1.4334890810519456
1701290507905086000,11.8670859375,1.7061527604997158,-0.7066285124421119,1.338779876048863
1701290507915161000,11.8771611328125,1.644830569052696,-0.877106659656763,1.1434066492915154
1701290507925236200,11.887236328125,1.432022515630722,-0.9462176052838563,0.8304585979893803
1701290507935312400,11.8973125,1.2172481305718421,-0.9648393036454915,0.36997780625224114
1701290507945387000,11.907386962890625,0.8484954822003841,-0.8901163633555174,-0.16315174984931946
1701290507955462100,11.917462158203126,0.3609165479183197,-0.4850613985031843,-0.5269599275559187
1701290507965538300,11.927538330078125,-0.23700499463267624,0.09884031345844269,-0.7534902168601751
1701290507975613200,11.93761328125,-0.8144119377475232,0.34695641162693497,-1.0928905140191316
1701290507985688300,11.947688232421875,-0.9480009815692901,0.2331494151830673,-1.389118024405837
1701290507995764200,11.95776416015625,-0.6220120277125388,0.04536240577101707,-1.3157856616914272
1701290508005839400,11.96783935546875,-0.11724814987368881,-0.03890110080242157,-0.9655720018342137
1701290508015914200,11.977914306640624,0.17746895595006643,-0.05103051453530788,-0.5320233484253287
1701290508025990100,11.987990234375,0.3198644796270877,-0.019219079732894898,-0.19999387229532004
1701290508036065300,11.998065185546874,0.5005355195540935,-0.003927987098693847,0.04260901540964841
1701290508046140200,12.00814013671875,0.7139478224795311,0.04914075526595115,0.24291882178634402
1701290508056216300,12.01821630859375,0.8002559135578572,0.15074235013127327,0.3632753860041499
1701290508066291500,12.02829150390625,0.7514717166446149,0.23854104509353635,0.37334056068360805
1701290508076366000,12.038365966796874,0.46884749193564057,0.22445874372720717,0.2758960854977369
1701290508086442200,12.048442138671875,0.10991934135556221,0.021315759751200675,0.11304682572633028
1701290508096517400,12.058517333984375,-0.1844167292613536,-0.24777298381924628,-0.008330313710868358
1701290508106592300,12.06859228515625,-0.26060207025408744,-0.3611369126707315,0.019122925882041453
1701290508116668200,12.078668212890625,-0.17728322411961853,-0.30506898849010466,0.09028115942776202
1701290508126743300,12.088743408203126,-0.0657084437072277,-0.1598509547382593,0.10888459148034453
1701290508136818200,12.098818115234375,0.026369974400848147,0.008815759140253067,0.061140989661216734
1701290508146894300,12.108894287109376,0.041656390859931704,0.0631166736483574,-0.029857231994718313
1701290508156969200,12.11896923828125,0.031402707871049644,0.013038345271348952,-0.19301497319340705
1701290508167045000,12.129045166015626,-0.002262391974031925,-0.09465922838151454,-0.35268004997074603
1701290508177120300,12.139120361328125,-0.09446823585405945,-0.24946517468988894,-0.4401236478850245
1701290508187195400,12.1491953125,-0.18691285692602394,-0.36133155845999715,-0.45979646273478864
1701290508197271300,12.159271240234375,-0.25972061124444007,-0.3068646397352218,-0.3950384516201913
1701290508207346200,12.16934619140625,-0.24761750099658963,-0.11084347046315669,-0.2584111360810697
1701290508217421300,12.17942138671875,-0.20437457159757613,0.15430676461458206,-0.11110592079162597
1701290508227497200,12.189497314453124,-0.17346286211386322,0.25183599547445773,-0.06282251300737261
1701290508237572000,12.199572021484375,-0.1700947008550167,0.24810031607747077,0.008316869707405567
1701290508247647200,12.209647216796874,-0.18719108934551476,0.20895137799382207,0.11060381648838519
1701290508257723400,12.219723388671875,-0.2696821794189513,0.16935586518645285,0.1606616865992546
1701290508267798300,12.22979833984375,-0.32838103662505747,0.08556582134366035,0.23161168422177433
1701290508277873200,12.239873046875,-0.36448695375099777,-0.04356207835078239,0.2617886496901512
1701290508287949300,12.24994921875,-0.384248177536577,-0.06137129128575325,0.36318127797991034
1701290508298024200,12.260024169921875,-0.3504183886490762,0.027052257576584814,0.5423068420305848
1701290508308099300,12.270099365234374,-0.3284405117273331,0.10352934805750846,0.6728266344748437
1701290508318175200,12.28017529296875,-0.3490963462650776,0.14398878421783445,0.7646937479197978
1701290508328250000,12.29025,-0.3862507495306432,0.16347849758565425,0.9019709056697786
1701290508338325200,12.3003251953125,-0.5033667243920267,0.1417132405012846,1.0454429725371301
1701290508348401400,12.3104013671875,-0.7147860999345779,0.09603519290983677,1.271191902205348
1701290508358476300,12.320476318359376,-0.9645278996087611,0.10182488222718238,1.5061134416274726
1701290508368551200,12.33055126953125,-1.1983775720156729,-0.008652093011140822,1.7043473185129463
1701290508378627300,12.34062744140625,-1.3128303190171717,0.04216273294687271,2.029615922205895
1701290508388702200,12.3507021484375,-1.131022822406143,0.3860732010066509,2.486326986145973
1701290508398777300,12.36077734375,-0.908149740435183,0.6524801581472158,2.7824218100637195
1701290508408853200,12.370853271484375,-0.7714822390161454,0.5326479100644588,2.8324378868594766
1701290508418928000,12.38092822265625,-0.7061854448497294,0.13542963018715382,2.814032461597025
1701290508429003300,12.391003173828125,-0.6597079174436629,-0.07908639619648457,2.9498955147653816
1701290508439079200,12.4010791015625,-0.7968271081529558,0.062142860180139536,3.087279201629758
1701290508449154000,12.411154052734375,-0.9967628205202519,0.4879682258605957,3.1168086629748344
1701290508459229200,12.421229248046876,-1.1742213281415401,1.0756856967180968,3.1473926018089053
1701290508469305300,12.431305419921875,-1.3621243651486932,1.5022078124910592,3.141944273275137
1701290508479380200,12.441380126953124,-1.6418541835904121,1.6635978133648632,2.910697476842999
1701290508489455000,12.451455078125,-1.9468717341542243,1.6933219204992054,2.644125100007653
1701290508499531300,12.46153125,-2.1550001053273675,1.608431806460023,2.4202130303777754
1701290508509606100,12.471606201171875,-2.279231903543323,1.570831266862154,2.137802740680426
