time,seconds_elapsed,z,y,x
1701290496050204200,0.0122041015625,-0.340911865234375,0.5130157470703125,0.774444580078125
1701290496060279000,0.022279052734375,-0.341644287109375,0.5074005126953125,0.77154541015625
1701290496070355200,0.032355224609375,-0.3409423828125,0.516510009765625,0.78302001953125
1701290496080430000,0.04243017578125,-0.332794189453125,0.508880615234375,0.7853546142578125
1701290496090505200,0.052505126953125,-0.325408935546875,0.5196990966796875,0.790679931640625
1701290496100581000,0.0625810546875,-0.3228607177734375,0.5364990234375,0.779998779296875
1701290496110656000,0.072656005859375,-0.3338623046875,0.5538482666015625,0.7750091552734375
1701290496120731100,0.082731201171875,-0.3467254638671875,0.5468597412109375,0.767791748046875
1701290496130807000,0.09280712890625,-0.350128173828125,0.549224853515625,0.760162353515625
1701290496140882000,0.1028818359375,-0.352874755859375,0.4855194091796875,0.77020263671875
1701290496150957000,0.11295703125,-0.3771209716796875,0.5755615234375,0.7573394775390625
1701290496161032000,0.123031982421875,-0.3130950927734375,0.5479736328125,0.7693328857421875
1701290496171108000,0.133108154296875,-0.267730712890625,0.507537841796875,0.783966064453125
1701290496181183000,0.143182861328125,-0.29608154296875,0.51898193359375,0.7820892333984375
1701290496191257900,0.1532578125,-0.326385498046875,0.5019378662109375,0.758544921875
1701290496201334000,0.163333984375,-0.3342132568359375,0.487518310546875,0.75006103515625
1701290496211409200,0.1734091796875,-0.325164794921875,0.4770355224609375,0.754791259765625
1701290496221484300,0.183484375,-0.322296142578125,0.472076416015625,0.7543792724609375
1701290496231560000,0.193559814453125,-0.327484130859375,0.4763641357421875,0.746978759765625
1701290496241635000,0.203635009765625,-0.31951904296875,0.467071533203125,0.7415771484375
1701290496251710200,0.213710205078125,-0.296234130859375,0.4544525146484375,0.7174835205078125
1701290496261786000,0.2237861328125,-0.28314208984375,0.45452880859375,0.6953887939453125
1701290496271861000,0.233861083984375,-0.2942657470703125,0.4814300537109375,0.6973876953125
1701290496281937200,0.243937255859375,-0.2764434814453125,0.502105712890625,0.70465087890625
1701290496292012000,0.254011962890625,-0.2143402099609375,0.5186614990234375,0.677734375
1701290496302087200,0.264087158203125,-0.209991455078125,0.5675201416015625,0.6459808349609375
1701290496312163000,0.2741630859375,-0.2364501953125,0.5899810791015625,0.6074066162109375
1701290496322238000,0.284238037109375,-0.258941650390625,0.603485107421875,0.596527099609375
1701290496332313000,0.29431298828125,-0.284271240234375,0.544036865234375,0.7018890380859375
1701290496342388200,0.30438818359375,-0.2543182373046875,0.5529327392578125,0.7853240966796875
1701290496352464000,0.3144638671875,-0.2216033935546875,0.6667938232421875,0.76751708984375
1701290496362539000,0.3245390625,-0.2335968017578125,0.6950225830078125,0.730865478515625
1701290496372614100,0.3346142578125,-0.2356109619140625,0.6773834228515625,0.6740875244140625
1701290496382690000,0.34468994140625,-0.2317962646484375,0.63580322265625,0.63275146484375
1701290496392765000,0.354764892578125,-0.21063232421875,0.6207122802734375,0.6013031005859375
1701290496402840000,0.364840087890625,-0.1724090576171875,0.613311767578125,0.580474853515625
1701290496412916200,0.374916259765625,-0.1428070068359375,0.610321044921875,0.580718994140625
1701290496422991000,0.3849912109375,-0.1421966552734375,0.6293792724609375,0.587188720703125
1701290496433066200,0.395066162109375,-0.1776123046875,0.6477203369140625,0.5885162353515625
1701290496443142100,0.40514208984375,-0.2135772705078125,0.6822509765625,0.5780029296875
1701290496453217000,0.415217041015625,-0.22491455078125,0.694488525390625,0.5693206787109375
1701290496463292200,0.425292236328125,-0.2043609619140625,0.685516357421875,0.5404205322265625
1701290496473368000,0.4353681640625,-0.172821044921875,0.6899261474609375,0.52447509765625
1701290496483443000,0.44544287109375,-0.138580322265625,0.7279510498046875,0.5030975341796875
1701290496493518000,0.45551806640625,-0.157623291015625,0.8910980224609375,0.504852294921875
1701290496503593000,0.465593017578125,-0.1702117919921875,0.973907470703125,0.55517578125
1701290496513669000,0.475669189453125,-0.13043212890625,0.7568817138671875,0.611724853515625
1701290496523744000,0.485743896484375,0.0166778564453125,0.597808837890625,0.50982666015625
1701290496533819000,0.49581884765625,0.0612335205078125,0.703155517578125,0.390472412109375
1701290496543895000,0.50589501953125,-0.0437774658203125,0.8346405029296875,0.41058349609375
1701290496553970200,0.51597021484375,-0.2052001953125,0.9552459716796875,0.4980621337890625
1701290496564045000,0.526045166015625,-0.2926025390625,1.010223388671875,0.5616302490234375
1701290496574121000,0.536120849609375,-0.238067626953125,0.98870849609375,0.6158599853515625
1701290496584196000,0.546196044921875,-0.169952392578125,0.9546966552734375,0.6925811767578125
1701290496594271200,0.556271240234375,-0.1085968017578125,0.925628662109375,0.7827911376953125
1701290496604347000,0.566346923828125,-0.0638580322265625,0.8110809326171875,0.7686920166015625
1701290496614422000,0.576422119140625,-0.048370361328125,0.7681884765625,0.763153076171875
1701290496624497200,0.5864970703125,-0.0467376708984375,0.8140411376953125,0.7722320556640625
1701290496634573000,0.596572998046875,-0.0334014892578125,0.8590240478515625,0.740081787109375
1701290496644648200,0.606648193359375,-0.017547607421875,0.900360107421875,0.6715850830078125
1701290496654723000,0.61672314453125,-0.0077972412109375,0.9651336669921875,0.593536376953125
1701290496664799000,0.626799072265625,-0.0117950439453125,1.043487548828125,0.4917755126953125
1701290496674874000,0.6368740234375,-0.039642333984375,1.1335296630859375,0.400390625
1701290496684949200,0.64694921875,-0.0821533203125,1.2100372314453125,0.353179931640625
1701290496695024000,0.657024169921875,-0.099853515625,1.2520599365234375,0.344818115234375
1701290496705100000,0.66710009765625,-0.1046142578125,1.26190185546875,0.364410400390625
1701290496715175200,0.677175048828125,-0.1069183349609375,1.2348175048828125,0.37091064453125
1701290496725250000,0.68725,-0.0948944091796875,1.210662841796875,0.3935699462890625
1701290496735326000,0.697325927734375,-0.089324951171875,1.194793701171875,0.4017181396484375
1701290496745401000,0.707401123046875,-0.095123291015625,1.1934661865234375,0.418182373046875
1701290496755476000,0.71747607421875,-0.101318359375,1.1915283203125,0.41064453125
1701290496765552000,0.72755224609375,-0.0932464599609375,1.18084716796875,0.35809326171875
1701290496775627300,0.737627197265625,-0.07891845703125,1.163299560546875,0.293731689453125
1701290496785702000,0.747701904296875,-0.060791015625,1.0643463134765625,0.2266998291015625
1701290496795778000,0.757778076171875,-0.0437164306640625,0.8969573974609375,0.1393280029296875
1701290496805853200,0.767853271484375,-0.0139617919921875,0.629730224609375,0.0205230712890625
1701290496815928000,0.777927978515625,-0.025054931640625,0.5426483154296875,0.0127105712890625
1701290496826004000,0.78800390625,-0.0769805908203125,0.620697021484375,0.1421661376953125
1701290496836079000,0.7980791015625,-0.1227264404296875,0.787567138671875,0.3126068115234375
1701290496846154000,0.808154052734375,-0.1260528564453125,0.9463043212890625,0.3909149169921875
1701290496856230100,0.818230224609375,-0.0795745849609375,0.9910430908203125,0.3520355224609375
1701290496866305000,0.828304931640625,-0.0225067138671875,0.9633941650390625,0.297637939453125
1701290496876380000,0.8383798828125,0.0070037841796875,0.9641571044921875,0.2941131591796875
1701290496886456000,0.8484560546875,0.004638671875,0.9806671142578125,0.313140869140625
1701290496896531200,0.85853125,-0.021575927734375,0.9893646240234375,0.319122314453125
1701290496906606000,0.868606201171875,-0.070648193359375,0.9693603515625,0.307403564453125
1701290496916681000,0.878680908203125,-0.0969085693359375,0.9212493896484375,0.2939605712890625
1701290496926757000,0.888757080078125,-0.0801239013671875,0.8876953125,0.3082122802734375
1701290496936832300,0.898832275390625,-0.04791259765625,0.885223388671875,0.3394012451171875
1701290496946907400,0.908907470703125,-0.028839111328125,0.897216796875,0.3580322265625
1701290496956983000,0.918983154296875,-0.0204010009765625,0.9244537353515625,0.3402862548828125
1701290496967058200,0.92905810546875,-0.0099029541015625,0.9410552978515625,0.29638671875
1701290496977133300,0.93913330078125,-0.0137176513671875,0.960601806640625,0.259918212890625
1701290496987209000,0.949208984375,-0.0227813720703125,0.9827880859375,0.24163818359375
1701290496997284000,0.9592841796875,-0.0243072509765625,1.0182647705078125,0.2296600341796875
1701290497007359200,0.969359130859375,-0.028717041015625,1.041473388671875,0.200042724609375
1701290497017435400,0.979435302734375,-0.0492401123046875,1.0442657470703125,0.1682891845703125
1701290497027510300,0.98951025390625,-0.043243408203125,0.955352783203125,0.210723876953125
1701290497037585200,0.999585205078125,-0.0157318115234375,0.921173095703125,0.257293701171875
1701290497047661300,1.009661376953125,-0.0149688720703125,0.9423675537109375,0.233367919921875
1701290497057736200,1.019736083984375,-0.0230865478515625,0.9698486328125,0.2257232666015625
1701290497067811300,1.029811279296875,-0.0420379638671875,0.9839630126953125,0.2440185546875
1701290497077887200,1.03988720703125,-0.04974365234375,0.9840240478515625,0.2499237060546875
1701290497087962000,1.049962158203125,-0.0335693359375,0.9680633544921875,0.2447357177734375
1701290497098037200,1.060037353515625,-0.02105712890625,0.9569244384765625,0.244384765625
1701290497108112100,1.070112060546875,-0.0252838134765625,0.9555511474609375,0.2535858154296875
1701290497118188000,1.08018798828125,-0.026885986328125,0.9674072265625,0.26116943359375
1701290497128263200,1.09026318359375,-0.0220947265625,0.9746551513671875,0.27374267578125
1701290497138338000,1.100338134765625,-0.0128631591796875,0.9705047607421875,0.284149169921875
1701290497148414200,1.110414306640625,-0.00665283203125,0.964691162109375,0.2958984375
1701290497158489300,1.1204892578125,-0.0058746337890625,0.9563751220703125,0.3047027587890625
1701290497168564000,1.13056396484375,-0.0027313232421875,0.951934814453125,0.31256103515625
1701290497178640100,1.14064013671875,-0.00079345703125,0.9560089111328125,0.3158416748046875
1701290497188715300,1.15071533203125,0.0007476806640625,0.9636077880859375,0.3146514892578125
1701290497198790400,1.160790283203125,-0.0038909912109375,0.965118408203125,0.3035736083984375
1701290497208866000,1.170865966796875,-0.0049896240234375,0.9549560546875,0.2933197021484375
1701290497218941200,1.180941162109375,-0.001617431640625,0.9462890625,0.2860870361328125
1701290497229016300,1.191016357421875,0.0101165771484375,0.946624755859375,0.2891082763671875
1701290497239092200,1.20109228515625,0.02496337890625,0.948333740234375,0.2945404052734375
1701290497249167000,1.2111669921875,0.034088134765625,0.9555816650390625,0.29803466796875
1701290497259242200,1.2212421875,0.0295562744140625,0.956390380859375,0.29718017578125
1701290497269318100,1.231318115234375,0.016448974609375,0.9520416259765625,0.300079345703125
1701290497279393300,1.241393310546875,0.0142059326171875,0.9437103271484375,0.302703857421875
1701290497289468400,1.251468505859375,0.0206298828125,0.937530517578125,0.301544189453125
1701290497299543000,1.26154296875,0.0290374755859375,0.9429473876953125,0.3015899658203125
1701290497309619200,1.271619140625,0.033660888671875,0.9525909423828125,0.2975311279296875
1701290497319694300,1.2816943359375,0.0293731689453125,0.9602813720703125,0.286834716796875
1701290497329769200,1.291769287109375,0.0195159912109375,0.959991455078125,0.2754058837890625
1701290497339845000,1.30184521484375,0.0113677978515625,0.9561004638671875,0.2674102783203125
1701290497349920300,1.311920166015625,0.0142974853515625,0.9609222412109375,0.260772705078125
1701290497359995100,1.3219951171875,0.018524169921875,0.9655914306640625,0.259033203125
1701290497370071300,1.3320712890625,0.0213470458984375,0.963134765625,0.2602386474609375
1701290497380146200,1.342146240234375,0.025299072265625,0.9622039794921875,0.258331298828125
1701290497390221000,1.352220947265625,0.0289459228515625,0.965423583984375,0.25341796875
1701290497400297200,1.362297119140625,0.029998779296875,0.9687957763671875,0.2551422119140625
1701290497410372400,1.372372314453125,0.030181884765625,0.9716033935546875,0.257598876953125
1701290497420447200,1.382447265625,0.023590087890625,0.9730224609375,0.251312255859375
1701290497430523100,1.392523193359375,0.019683837890625,0.9731292724609375,0.24188232421875
1701290497440598300,1.402598388671875,0.0185394287109375,0.97210693359375,0.234283447265625
1701290497450673200,1.412673095703125,0.0178680419921875,0.972381591796875,0.2293243408203125
1701290497460748300,1.422748291015625,0.01788330078125,0.9737396240234375,0.232025146484375
1701290497470824200,1.43282421875,0.02215576171875,0.972198486328125,0.233612060546875
1701290497480899000,1.442899169921875,0.027008056640625,0.9708251953125,0.2349853515625
1701290497490974200,1.45297412109375,0.02728271484375,0.9707489013671875,0.2288055419921875
1701290497501050000,1.463050048828125,0.01849365234375,0.9692535400390625,0.230560302734375
1701290497511125000,1.473125,0.0120391845703125,0.969696044921875,0.2377777099609375
1701290497521200000,1.4832001953125,0.0127410888671875,0.9743194580078125,0.2439117431640625
1701290497531276300,1.4932763671875,0.017181396484375,0.980865478515625,0.24822998046875
1701290497541351200,1.50335107421875,0.024139404296875,0.977874755859375,0.249114990234375
1701290497551426000,1.513426025390625,0.03271484375,0.972625732421875,0.2354278564453125
1701290497561502200,1.523502197265625,0.030670166015625,0.9683990478515625,0.223968505859375
1701290497571577300,1.533577392578125,0.0142974853515625,0.9713287353515625,0.2190704345703125
1701290497581652200,1.54365234375,0.003326416015625,0.9757843017578125,0.223358154296875
1701290497591728000,1.55372802734375,0.003997802734375,0.9713134765625,0.233612060546875
1701290497601803300,1.56380322265625,0.01910400390625,0.966705322265625,0.2441864013671875
1701290497611878100,1.573878173828125,0.033843994140625,0.9627685546875,0.254791259765625
1701290497621954300,1.583954345703125,0.040313720703125,0.9588165283203125,0.263580322265625
1701290497632029200,1.594029296875,0.0337677001953125,0.9604034423828125,0.2600860595703125
1701290497642104000,1.60410400390625,0.0149688720703125,0.963165283203125,0.2562713623046875
1701290497652179200,1.61417919921875,0.0068359375,0.96868896484375,0.2523956298828125
1701290497662255400,1.62425537109375,0.009918212890625,0.974334716796875,0.2431793212890625
1701290497672330200,1.634330322265625,0.0160369873046875,0.973480224609375,0.23583984375
1701290497682405000,1.644405029296875,0.0199737548828125,0.97418212890625,0.232391357421875
1701290497692481300,1.654481201171875,0.0158843994140625,0.971466064453125,0.2339630126953125
1701290497702556200,1.66455615234375,0.0138702392578125,0.97137451171875,0.2429962158203125
1701290497712631300,1.67463134765625,0.0156707763671875,0.9719085693359375,0.2502899169921875
1701290497722707200,1.684707275390625,0.0198822021484375,0.97418212890625,0.2479400634765625
1701290497732782000,1.694781982421875,0.024261474609375,0.97235107421875,0.2425384521484375
1701290497742857200,1.704857177734375,0.0273895263671875,0.9717864990234375,0.23211669921875
1701290497752933400,1.714933349609375,0.025634765625,0.974609375,0.2231292724609375
1701290497763008000,1.725008056640625,0.015625,0.97576904296875,0.2232818603515625
1701290497773083100,1.735083251953125,0.0092926025390625,0.9755096435546875,0.235626220703125
1701290497783159300,1.7451591796875,0.009857177734375,0.9795074462890625,0.245147705078125
1701290497793234200,1.755234130859375,0.0227203369140625,0.9776763916015625,0.2388916015625
1701290497803309300,1.765309326171875,0.0323486328125,0.9625244140625,0.2332763671875
1701290497813384200,1.77538427734375,0.03509521484375,0.9525604248046875,0.233367919921875
1701290497823460000,1.785460205078125,0.034759521484375,0.9559478759765625,0.237396240234375
1701290497833535200,1.79553515625,0.02655029296875,0.9676513671875,0.2397613525390625
1701290497843610400,1.8056103515625,0.0180206298828125,0.97735595703125,0.24298095703125
1701290497853686000,1.81568603515625,0.0147705078125,0.9812469482421875,0.2442474365234375
1701290497863761200,1.82576123046875,0.0153656005859375,0.9809417724609375,0.241119384765625
1701290497873836300,1.835836181640625,0.01617431640625,0.9759368896484375,0.23846435546875
1701290497883912200,1.845912109375,0.0165252685546875,0.9718170166015625,0.2384490966796875
1701290497893987000,1.855987060546875,0.015655517578125,0.965606689453125,0.2467193603515625
1701290497904062200,1.866062255859375,0.0150299072265625,0.96636962890625,0.2581634521484375
1701290497914138000,1.87613818359375,0.02117919921875,0.9712066650390625,0.2633056640625
1701290497924212000,1.8862119140625,0.025970458984375,0.972747802734375,0.26678466796875
1701290497934287000,1.896287109375,0.026275634765625,0.96856689453125,0.2695159912109375
1701290497944362800,1.90636279296875,0.0288543701171875,0.961212158203125,0.2727203369140625
1701290497954438000,1.91643798828125,0.0274505615234375,0.95428466796875,0.2727508544921875
1701290497964513000,1.926512939453125,0.0238037109375,0.9554443359375,0.274688720703125
1701290497974589000,1.9365888671875,0.0181121826171875,0.9540557861328125,0.2802581787109375
1701290497984664000,1.9466640625,0.0236663818359375,0.9497222900390625,0.2814788818359375
1701290497994739000,1.956739013671875,0.029510498046875,0.9456024169921875,0.2808837890625
1701290498004813800,1.966813720703125,0.031585693359375,0.94573974609375,0.277587890625
1701290498014890000,1.976889892578125,0.0274200439453125,0.9491119384765625,0.2716217041015625
1701290498024965000,1.986965087890625,0.0209503173828125,0.9498748779296875,0.2714080810546875
1701290498035040000,1.9970400390625,0.016021728515625,0.9521026611328125,0.27667236328125
1701290498045116000,2.007115966796875,0.02081298828125,0.9571380615234375,0.278167724609375
1701290498055191000,2.01719091796875,0.025634765625,0.964141845703125,0.2782745361328125
1701290498065266000,2.027265869140625,0.0307464599609375,0.9714202880859375,0.27569580078125
1701290498075341800,2.037341796875,0.0304107666015625,0.9637298583984375,0.27069091796875
1701290498085417000,2.0474169921875,0.0265350341796875,0.9556732177734375,0.2646026611328125
1701290498095491800,2.057491943359375,0.0279541015625,0.9582977294921875,0.261383056640625
1701290498105568000,2.067568115234375,0.0259246826171875,0.96533203125,0.250640869140625
1701290498115643100,2.07764306640625,0.018096923828125,0.970672607421875,0.2453460693359375
1701290498125717800,2.0877177734375,0.010986328125,0.9756622314453125,0.2370758056640625
1701290498135794000,2.0977939453125,0.009490966796875,0.97540283203125,0.2325286865234375
1701290498145869000,2.107869140625,0.0137786865234375,0.973846435546875,0.2310638427734375
1701290498155944000,2.11794384765625,0.02044677734375,0.96966552734375,0.23138427734375
1701290498166019000,2.12801904296875,0.0256195068359375,0.96673583984375,0.230194091796875
1701290498176095000,2.138094970703125,0.0234832763671875,0.9701995849609375,0.2283477783203125
1701290498186170000,2.148170166015625,0.0179290771484375,0.9738922119140625,0.22833251953125
1701290498196245000,2.158244873046875,0.011444091796875,0.9755096435546875,0.2252197265625
1701290498206321000,2.16832080078125,0.0066070556640625,0.974395751953125,0.22296142578125
1701290498216396000,2.17839599609375,0.0106964111328125,0.97265625,0.2307281494140625
1701290498226471000,2.188470947265625,0.0204010009765625,0.9720611572265625,0.2401275634765625
1701290498236547000,2.198547119140625,0.02996826171875,0.9699859619140625,0.2443389892578125
1701290498246622200,2.208622314453125,0.031585693359375,0.9705657958984375,0.243560791015625
1701290498256696800,2.21869677734375,0.01922607421875,0.974029541015625,0.239471435546875
1701290498266773000,2.22877294921875,0.0079193115234375,0.978271484375,0.238494873046875
1701290498276848000,2.23884814453125,0.00189208984375,0.9754486083984375,0.241485595703125
1701290498286923000,2.248923095703125,0.0031280517578125,0.965576171875,0.25128173828125
1701290498296999000,2.2589990234375,0.01422119140625,0.9598541259765625,0.2624969482421875
1701290498307074000,2.269073974609375,0.0218048095703125,0.9571685791015625,0.2671356201171875
1701290498317149000,2.27914892578125,0.02294921875,0.9605560302734375,0.2671051025390625
1701290498327225000,2.28922509765625,0.012908935546875,0.9702606201171875,0.267547607421875
1701290498337300000,2.299300048828125,0.003143310546875,0.9744110107421875,0.263671875
1701290498347374800,2.309374755859375,0.0006866455078125,0.970458984375,0.2645721435546875
1701290498357450000,2.319449951171875,0.00115966796875,0.964569091796875,0.2686920166015625
1701290498367526100,2.329526123046875,-0.0006103515625,0.962371826171875,0.27001953125
1701290498377601000,2.33960107421875,-0.00189208984375,0.961944580078125,0.27276611328125
1701290498387676000,2.349676025390625,0.00042724609375,0.962615966796875,0.273193359375
1701290498397752000,2.359751953125,0.0045013427734375,0.964385986328125,0.2663421630859375
1701290498407827000,2.369826904296875,0.0124359130859375,0.9652557373046875,0.25543212890625
1701290498417902000,2.379902099609375,0.0195770263671875,0.95782470703125,0.2522430419921875
1701290498427978000,2.38997802734375,0.0223846435546875,0.9545440673828125,0.2556304931640625
1701290498438052900,2.400052978515625,0.0213470458984375,0.95709228515625,0.26287841796875
1701290498448128000,2.4101279296875,0.014251708984375,0.9603424072265625,0.266143798828125
1701290498458204000,2.420203857421875,0.0092620849609375,0.96478271484375,0.2630157470703125
1701290498468278800,2.43027880859375,0.005828857421875,0.9676361083984375,0.256134033203125
1701290498478354000,2.44035400390625,0.0115966796875,0.963104248046875,0.25238037109375
1701290498488430000,2.45043017578125,0.0196075439453125,0.9586029052734375,0.257659912109375
1701290498498505000,2.4605048828125,0.0267333984375,0.9619903564453125,0.2644195556640625
1701290498508580000,2.470580078125,0.029083251953125,0.9674530029296875,0.26605224609375
1701290498518656000,2.480656005859375,0.0193634033203125,0.9675750732421875,0.2625579833984375
1701290498528731000,2.49073095703125,0.0006103515625,0.96112060546875,0.254974365234375
1701290498538806000,2.500805908203125,-0.0084228515625,0.9554595947265625,0.2581634521484375
1701290498548882000,2.5108818359375,0.0009765625,0.954986572265625,0.2667388916015625
1701290498558957000,2.52095703125,0.0189208984375,0.9559478759765625,0.2730255126953125
1701290498569032000,2.531031982421875,0.0297393798828125,0.9517822265625,0.276702880859375
1701290498579107000,2.541107177734375,0.0332794189453125,0.95208740234375,0.27557373046875
1701290498589183000,2.551182861328125,0.024810791015625,0.958404541015625,0.27423095703125
1701290498599257900,2.5612578125,0.008880615234375,0.9615936279296875,0.272186279296875
1701290498609333000,2.5713330078125,-0.0030517578125,0.9600677490234375,0.2725830078125
1701290498619409200,2.5814091796875,0.0021514892578125,0.9589385986328125,0.2778167724609375
1701290498629484000,2.591484130859375,0.020660400390625,0.9609832763671875,0.2786407470703125
1701290498639559000,2.601558837890625,0.0324554443359375,0.9626312255859375,0.2768096923828125
1701290498649635000,2.611635009765625,0.0331268310546875,0.9621734619140625,0.2697296142578125
1701290498659710000,2.6217099609375,0.0247802734375,0.9582977294921875,0.2674407958984375
1701290498669785000,2.63178515625,0.0146331787109375,0.9588775634765625,0.269256591796875
1701290498679861000,2.641861083984375,0.0101470947265625,0.959197998046875,0.2762298583984375
1701290498689936000,2.651935791015625,0.0149688720703125,0.9623870849609375,0.2821044921875
1701290498700011000,2.662010986328125,0.02191162109375,0.9633331298828125,0.2806549072265625
1701290498710087200,2.672087158203125,0.0323944091796875,0.963653564453125,0.2690887451171875
1701290498720161800,2.682161865234375,0.0322265625,0.9605560302734375,0.262481689453125
1701290498730237000,2.69223681640625,0.0160980224609375,0.959930419921875,0.265167236328125
1701290498740313000,2.70231298828125,0.0026397705078125,0.9590911865234375,0.2666015625
1701290498750388000,2.712387939453125,0.0026702880859375,0.9652099609375,0.2641754150390625
1701290498760463000,2.722463134765625,0.0142059326171875,0.96429443359375,0.270050048828125
1701290498770538000,2.7325380859375,0.0235595703125,0.95904541015625,0.277313232421875
1701290498780614000,2.74261376953125,0.0307464599609375,0.9532470703125,0.279083251953125
1701290498790689000,2.75268896484375,0.0334625244140625,0.9536285400390625,0.2735443115234375
1701290498800764200,2.76276416015625,0.0265960693359375,0.9572296142578125,0.2703094482421875
1701290498810839800,2.77283984375,0.0136566162109375,0.9630126953125,0.264862060546875
1701290498820915000,2.7829150390625,0.0029296875,0.9713897705078125,0.25738525390625
1701290498830990000,2.792989990234375,-0.0013580322265625,0.9741058349609375,0.2513275146484375
1701290498841066000,2.80306591796875,0.0036773681640625,0.969451904296875,0.2527618408203125
1701290498851140900,2.813140869140625,0.0133056640625,0.963134765625,0.2541046142578125
1701290498861216000,2.823216064453125,0.0177459716796875,0.9600677490234375,0.2546234130859375
1701290498871292000,2.8332919921875,0.013092041015625,0.9632720947265625,0.25543212890625
1701290498881367000,2.843366943359375,0.0028533935546875,0.967132568359375,0.25433349609375
1701290498891442200,2.853442138671875,-0.0045166015625,0.9701385498046875,0.2581329345703125
1701290498901517800,2.863517822265625,-0.000701904296875,0.973876953125,0.258026123046875
1701290498911593000,2.873593017578125,0.007843017578125,0.969512939453125,0.2564697265625
1701290498921668000,2.883668212890625,0.01422119140625,0.9658050537109375,0.2558441162109375
1701290498931744800,2.893744873046875,0.0164642333984375,0.955841064453125,0.2534637451171875
1701290498941820000,2.90381982421875,0.0193634033203125,0.95062255859375,0.2437591552734375
1701290498951894800,2.913894775390625,0.0184173583984375,0.9549560546875,0.2330780029296875
1701290498961970700,2.923970703125,0.006866455078125,0.966552734375,0.2355804443359375
1701290498972045800,2.9340458984375,0.004241943359375,0.9649505615234375,0.2379913330078125
1701290498982120700,2.94412060546875,0.01812744140625,0.96600341796875,0.24835205078125
1701290498992195800,2.95419580078125,0.037078857421875,0.966033935546875,0.26080322265625
1701290499002272000,2.96427197265625,0.04168701171875,0.95098876953125,0.2593994140625
1701290499012346600,2.9743466796875,0.04095458984375,0.952911376953125,0.260101318359375
1701290499022421800,2.984421875,0.03607177734375,0.9663238525390625,0.2531890869140625
1701290499032498000,2.994497802734375,0.020233154296875,0.9713592529296875,0.2358856201171875
1701290499042573000,3.004572998046875,0.015045166015625,0.9759368896484375,0.226318359375
1701290499052648000,3.01464794921875,0.0204010009765625,0.96697998046875,0.22967529296875
1701290499062723800,3.024723876953125,0.035797119140625,0.9617462158203125,0.2500762939453125
1701290499072799000,3.034799072265625,0.046966552734375,0.969818115234375,0.2676239013671875
1701290499082873900,3.044873779296875,0.047698974609375,0.9774017333984375,0.2734527587890625
1701290499092949800,3.05494970703125,0.0342254638671875,0.9794921875,0.26611328125
1701290499103025000,3.06502490234375,0.0150909423828125,0.97613525390625,0.2482147216796875
1701290499113099800,3.075099853515625,0.0034332275390625,0.96905517578125,0.2344207763671875
1701290499123176000,3.085176025390625,0.010650634765625,0.9635467529296875,0.227264404296875
1701290499133251000,3.0952509765625,0.029632568359375,0.961700439453125,0.222137451171875
1701290499143325700,3.10532568359375,0.043121337890625,0.962127685546875,0.2261505126953125
1701290499153401900,3.11540185546875,0.04229736328125,0.9556732177734375,0.2313079833984375
1701290499163477000,3.12547705078125,0.0408782958984375,0.95379638671875,0.2399749755859375
1701290499173551900,3.1355517578125,0.0440216064453125,0.95611572265625,0.2486114501953125
1701290499183627800,3.145627685546875,0.0487060546875,0.9720001220703125,0.2598419189453125
1701290499193703000,3.155702880859375,0.048828125,0.995849609375,0.271881103515625
1701290499203777800,3.16577783203125,0.043792724609375,1.005828857421875,0.276885986328125
1701290499213854000,3.17585400390625,0.0391082763671875,0.9989013671875,0.2783203125
1701290499223928800,3.1859287109375,0.0336456298828125,0.9894866943359375,0.2740631103515625
1701290499234003700,3.196003662109375,0.027069091796875,0.97662353515625,0.2642059326171875
1701290499244078800,3.206078857421875,0.0220947265625,0.964935302734375,0.254638671875
1701290499254155000,3.216155029296875,0.0264739990234375,0.964691162109375,0.2415313720703125
1701290499264230000,3.22622998046875,0.03936767578125,0.9744415283203125,0.229583740234375
1701290499274304800,3.2363046875,0.0444488525390625,0.9837799072265625,0.2119140625
1701290499284381000,3.246380859375,0.039215087890625,0.9787139892578125,0.189971923828125
1701290499294455800,3.256455810546875,0.0414886474609375,0.9681243896484375,0.173797607421875
1701290499304531000,3.266531005859375,0.040557861328125,0.9533843994140625,0.1761474609375
1701290499314606800,3.27660693359375,0.039703369140625,0.94708251953125,0.19635009765625
1701290499324681700,3.286681640625,0.0445556640625,0.9466552734375,0.217742919921875
1701290499334756900,3.2967568359375,0.0527496337890625,0.9490814208984375,0.226104736328125
1701290499344833000,3.3068330078125,0.0591888427734375,0.9516754150390625,0.23345947265625
1701290499354907600,3.31690771484375,0.057708740234375,0.944580078125,0.23834228515625
1701290499364982800,3.326982666015625,0.0534820556640625,0.93780517578125,0.2405853271484375
1701290499375059000,3.337058837890625,0.046112060546875,0.934173583984375,0.2400970458984375
1701290499385133800,3.3471337890625,0.0418701171875,0.9428863525390625,0.2418060302734375
1701290499395209000,3.357208984375,0.040130615234375,0.968292236328125,0.2371368408203125
1701290499405284900,3.367284912109375,0.0352325439453125,0.981414794921875,0.2293701171875
1701290499415360000,3.377360107421875,0.0325775146484375,0.9700164794921875,0.22705078125
1701290499425435000,3.387434814453125,0.0419464111328125,0.966339111328125,0.229339599609375
1701290499435510800,3.3975107421875,0.050628662109375,0.974822998046875,0.2291259765625
1701290499445586000,3.4075859375,0.04156494140625,0.979583740234375,0.235076904296875
1701290499455660800,3.417660888671875,0.0247802734375,0.98095703125,0.2383880615234375
1701290499465736000,3.42773583984375,0.016326904296875,0.9772491455078125,0.23486328125
1701290499475811800,3.437811767578125,0.023773193359375,0.9684906005859375,0.2357330322265625
1701290499485886700,3.44788671875,0.0384979248046875,0.9627227783203125,0.2385101318359375
1701290499495961900,3.4579619140625,0.05291748046875,0.9617919921875,0.2413482666015625
1701290499506038000,3.4680380859375,0.0543212890625,0.96746826171875,0.2377471923828125
1701290499516113000,3.47811279296875,0.050384521484375,0.9735870361328125,0.2285919189453125
1701290499526187800,3.488187744140625,0.0434417724609375,0.970367431640625,0.2213134765625
1701290499536264000,3.498263916015625,0.0370330810546875,0.96380615234375,0.2140350341796875
1701290499546338800,3.5083388671875,0.034942626953125,0.9611663818359375,0.2120361328125
1701290499556414000,3.5184140625,0.0430145263671875,0.960540771484375,0.2158203125
1701290499566489900,3.52848974609375,0.0516510009765625,0.9676666259765625,0.2216033935546875
1701290499576564700,3.538564697265625,0.05230712890625,0.9808502197265625,0.222930908203125
1701290499586640000,3.548639892578125,0.0454254150390625,0.992950439453125,0.2175140380859375
1701290499596716000,3.558716064453125,0.0344390869140625,0.9955291748046875,0.208587646484375
1701290499606790700,3.568790771484375,0.0246124267578125,0.9824676513671875,0.205413818359375
1701290499616865800,3.57886572265625,0.02459716796875,0.97265625,0.208953857421875
1701290499626942000,3.58894189453125,0.0352783203125,0.9734039306640625,0.2174530029296875
1701290499637016800,3.599016845703125,0.044464111328125,0.98016357421875,0.223419189453125
1701290499647092000,3.609092041015625,0.0473785400390625,0.984130859375,0.2276153564453125
1701290499657168000,3.61916796875,0.0500640869140625,0.988006591796875,0.2237396240234375
1701290499667242800,3.62924267578125,0.05096435546875,0.9816131591796875,0.2210845947265625
1701290499677318000,3.63931787109375,0.04986572265625,0.9707183837890625,0.2275848388671875
1701290499687393800,3.649393798828125,0.052703857421875,0.9719085693359375,0.2326202392578125
1701290499697468700,3.65946875,0.0595245361328125,0.9796600341796875,0.24169921875
1701290499707543800,3.669543701171875,0.0637359619140625,0.9868927001953125,0.24298095703125
1701290499717620000,3.679619873046875,0.0596771240234375,0.9790496826171875,0.236175537109375
1701290499727694800,3.68969482421875,0.055938720703125,0.96478271484375,0.226654052734375
1701290499737769700,3.699769775390625,0.057464599609375,0.9568328857421875,0.22412109375
1701290499747844900,3.709844970703125,0.0612640380859375,0.9541473388671875,0.2222442626953125
1701290499757920800,3.719920654296875,0.059234619140625,0.9580230712890625,0.2189788818359375
1701290499767996000,3.729995849609375,0.0569915771484375,0.9654388427734375,0.2165374755859375
1701290499778071000,3.740071044921875,0.0546722412109375,0.9713134765625,0.2137603759765625
1701290499788147000,3.75014697265625,0.059417724609375,0.9631500244140625,0.2115020751953125
1701290499798221800,3.760221923828125,0.062591552734375,0.95916748046875,0.2146759033203125
1701290499808297000,3.770296875,0.0653839111328125,0.95697021484375,0.2215118408203125
1701290499818372900,3.780372802734375,0.0704498291015625,0.954681396484375,0.22540283203125
1701290499828447700,3.79044775390625,0.073822021484375,0.955841064453125,0.2289886474609375
1701290499838523000,3.80052294921875,0.0771636962890625,0.9630126953125,0.23455810546875
1701290499848599000,3.81059912109375,0.0819091796875,0.9649810791015625,0.2412109375
1701290499858674000,3.820673828125,0.089019775390625,0.959136962890625,0.251495361328125
1701290499868748800,3.830748779296875,0.1015625,0.9600372314453125,0.259429931640625
1701290499878825000,3.840824951171875,0.1070098876953125,0.96466064453125,0.2682342529296875
1701290499888899800,3.85089990234375,0.097930908203125,0.9715423583984375,0.2750396728515625
1701290499898975000,3.86097509765625,0.0826416015625,0.9698486328125,0.2741241455078125
1701290499909051000,3.87105078125,0.0740509033203125,0.956390380859375,0.2665557861328125
1701290499919125800,3.881125732421875,0.0848846435546875,0.9420166015625,0.25518798828125
1701290499929201000,3.891200927734375,0.0988311767578125,0.9346160888671875,0.253692626953125
1701290499939277000,3.901277099609375,0.1041717529296875,0.9317779541015625,0.2554779052734375
1701290499949352000,3.91135205078125,0.09765625,0.930267333984375,0.265411376953125
1701290499959426800,3.9214267578125,0.088836669921875,0.932830810546875,0.2728118896484375
1701290499969503000,3.9315029296875,0.085174560546875,0.94317626953125,0.279144287109375
1701290499979578000,3.941578125,0.087371826171875,0.946563720703125,0.277496337890625
1701290499989653000,3.951653076171875,0.097381591796875,0.943450927734375,0.2762908935546875
1701290499999729000,3.96172900390625,0.1078643798828125,0.9373321533203125,0.274871826171875
1701290500009804000,3.971803955078125,0.1120452880859375,0.9381866455078125,0.2785186767578125
1701290500019879000,3.98187890625,0.1100311279296875,0.943206787109375,0.2814178466796875
1701290500029954000,3.9919541015625,0.104156494140625,0.9430999755859375,0.277313232421875
1701290500040030000,4.002030029296875,0.099334716796875,0.939178466796875,0.2668609619140625
1701290500050104800,4.012104736328125,0.1001434326171875,0.928802490234375,0.2555084228515625
1701290500060180000,4.022179931640625,0.1021881103515625,0.9171600341796875,0.2413482666015625
1701290500070255900,4.032255859375,0.101226806640625,0.9261016845703125,0.226470947265625
1701290500080330800,4.042330810546875,0.09747314453125,0.9585723876953125,0.2186279296875
1701290500090406000,4.052406005859375,0.089447021484375,1.0119171142578125,0.2271881103515625
1701290500100482000,4.06248193359375,0.0802459716796875,1.0444488525390625,0.2329864501953125
1701290500110557000,4.072556884765625,0.077056884765625,1.0334320068359375,0.2487030029296875
1701290500120631800,4.0826318359375,0.079559326171875,0.9955596923828125,0.25811767578125
1701290500130708000,4.0927080078125,0.0942535400390625,0.9557647705078125,0.264434814453125
1701290500140782800,4.102782958984375,0.108856201171875,0.9359893798828125,0.269287109375
1701290500150858000,4.11285791015625,0.116546630859375,0.9419403076171875,0.28253173828125
1701290500160934000,4.122933837890625,0.1143798828125,0.9605255126953125,0.3007965087890625
1701290500171008800,4.1330087890625,0.1194915771484375,0.9698944091796875,0.318145751953125
1701290500181084000,4.143083984375,0.1270599365234375,0.9615936279296875,0.331878662109375
1701290500191160000,4.15316015625,0.12994384765625,0.935089111328125,0.3363800048828125
1701290500201235000,4.16323486328125,0.1248321533203125,0.9180908203125,0.343414306640625
1701290500211309800,4.173309814453125,0.123565673828125,0.9150543212890625,0.358551025390625
1701290500221386000,4.183385986328125,0.121307373046875,0.9261474609375,0.37127685546875
1701290500231461000,4.193461181640625,0.1244049072265625,0.934844970703125,0.3761444091796875
1701290500241536000,4.203535888671875,0.1175537109375,0.937042236328125,0.3759918212890625
1701290500251612000,4.21361181640625,0.0885467529296875,0.9365997314453125,0.3763427734375
1701290500261687000,4.22368701171875,0.03680419921875,0.93890380859375,0.3666839599609375
1701290500271762000,4.233761962890625,0.0033721923828125,0.9503173828125,0.3451385498046875
1701290500281837800,4.243837890625,0.010528564453125,0.977264404296875,0.326934814453125
1701290500291913000,4.253912841796875,0.039794921875,0.9943389892578125,0.319671630859375
1701290500301987800,4.26398779296875,0.071807861328125,0.9834747314453125,0.3241119384765625
1701290500312064000,4.27406396484375,0.102630615234375,0.9602813720703125,0.3476104736328125
1701290500322139100,4.28413916015625,0.12939453125,0.94171142578125,0.3666534423828125
1701290500332213800,4.2942138671875,0.1479034423828125,0.9239959716796875,0.3674468994140625
1701290500342290000,4.3042900390625,0.153717041015625,0.9118499755859375,0.3665313720703125
1701290500352365000,4.314364990234375,0.148712158203125,0.9041900634765625,0.3648529052734375
1701290500362440000,4.32443994140625,0.1385498046875,0.9027557373046875,0.363739013671875
1701290500372515800,4.334515869140625,0.1272125244140625,0.9023895263671875,0.35662841796875
1701290500382591000,4.344591064453125,0.121978759765625,0.9055633544921875,0.3448333740234375
1701290500392665900,4.354665771484375,0.121917724609375,0.910614013671875,0.330322265625
1701290500402741000,4.364740966796875,0.125885009765625,0.9125823974609375,0.3105926513671875
1701290500412817000,4.37481689453125,0.1209564208984375,0.9154510498046875,0.300933837890625
1701290500422891800,4.384891845703125,0.112274169921875,0.939361572265625,0.306976318359375
1701290500432967000,4.394966796875,0.09869384765625,0.9637603759765625,0.310516357421875
1701290500443043000,4.40504296875,0.0924835205078125,0.9615325927734375,0.2968292236328125
1701290500453118000,4.415117919921875,0.098236083984375,0.94256591796875,0.2825469970703125
1701290500463192800,4.42519287109375,0.1121978759765625,0.9251708984375,0.2693023681640625
1701290500473269000,4.43526904296875,0.1210479736328125,0.9159393310546875,0.2592315673828125
1701290500483344000,4.44534375,0.1146087646484375,0.914886474609375,0.2550506591796875
1701290500493419000,4.4554189453125,0.1016693115234375,0.9238128662109375,0.2606201171875
1701290500503495000,4.465494873046875,0.1001129150390625,0.9339752197265625,0.2821197509765625
1701290500513569800,4.47556982421875,0.1153106689453125,0.933441162109375,0.303192138671875
1701290500523645000,4.48564501953125,0.12762451171875,0.9311065673828125,0.3189544677734375
1701290500533721000,4.49572119140625,0.1277618408203125,0.9388885498046875,0.329315185546875
1701290500543795700,4.505795654296875,0.1074981689453125,0.962860107421875,0.3293609619140625
1701290500553870800,4.515870849609375,0.0790557861328125,0.9744415283203125,0.3238677978515625
1701290500563947000,4.525947021484375,0.0616455078125,0.949859619140625,0.306365966796875
1701290500574022100,4.536022216796875,0.06793212890625,0.9165802001953125,0.29351806640625
1701290500584097000,4.546096923828125,0.08642578125,0.9079437255859375,0.3111724853515625
1701290500594173000,4.5561728515625,0.09173583984375,0.9118194580078125,0.3321533203125
1701290500604248000,4.566248046875,0.10211181640625,0.9296722412109375,0.3428497314453125
1701290500614323000,4.576322998046875,0.1303863525390625,0.9407501220703125,0.352783203125
1701290500624398800,4.58639892578125,0.1594390869140625,0.9348602294921875,0.3724365234375
1701290500634474000,4.596473876953125,0.174560546875,0.917449951171875,0.384307861328125
1701290500644548900,4.606548828125,0.171539306640625,0.900390625,0.3814697265625
1701290500654625000,4.616625,0.1459197998046875,0.894256591796875,0.3766937255859375
1701290500664700000,4.626699951171875,0.108154296875,0.894378662109375,0.3727569580078125
1701290500674774800,4.63677490234375,0.069061279296875,0.8867034912109375,0.34991455078125
1701290500684851000,4.646850830078125,0.0529632568359375,0.882293701171875,0.3351287841796875
1701290500694926000,4.656926025390625,0.063690185546875,0.920318603515625,0.3655242919921875
1701290500705001000,4.6670009765625,0.0879974365234375,0.9829559326171875,0.410614013671875
1701290500715076900,4.677076904296875,0.1036834716796875,1.0040283203125,0.40972900390625
1701290500725152000,4.687152099609375,0.116607666015625,0.97528076171875,0.384674072265625
1701290500735227000,4.697226806640625,0.128204345703125,0.9366912841796875,0.3697662353515625
1701290500745302000,4.707302001953125,0.1339569091796875,0.93011474609375,0.36676025390625
1701290500755378000,4.7173779296875,0.122467041015625,0.956756591796875,0.36212158203125
1701290500765452800,4.727452880859375,0.09222412109375,1.0044403076171875,0.343994140625
1701290500775529000,4.737529052734375,0.0437469482421875,1.0462646484375,0.3042449951171875
1701290500785604000,4.74760400390625,-0.0169525146484375,1.0418548583984375,0.25164794921875
1701290500795679000,4.757678955078125,-0.081146240234375,1.010528564453125,0.2042694091796875
1701290500805753900,4.76775390625,-0.1082000732421875,0.983795166015625,0.2014312744140625
1701290500815830000,4.777830078125,-0.089385986328125,0.9619140625,0.2225494384765625
1701290500825905000,4.78790478515625,-0.04632568359375,0.9666900634765625,0.246063232421875
1701290500835980000,4.79797998046875,-0.0047760009765625,1.00018310546875,0.255035400390625
1701290500846056000,4.808055908203125,0.027618408203125,1.044647216796875,0.2484130859375
1701290500856130800,4.818130859375,0.0498046875,1.0892791748046875,0.2291107177734375
1701290500866206000,4.8282060546875,0.0550537109375,1.124755859375,0.2204742431640625
1701290500876281900,4.83828173828125,0.0472564697265625,1.159698486328125,0.218475341796875
1701290500886356700,4.848356689453125,0.032470703125,1.1887969970703125,0.2226409912109375
1701290500896431900,4.858431884765625,0.016448974609375,1.202606201171875,0.2310943603515625
1701290500906508000,4.868508056640625,0.0126190185546875,1.1983795166015625,0.2333221435546875
1701290500916583200,4.878583251953125,0.009063720703125,1.1654052734375,0.237548828125
1701290500926657800,4.88865771484375,-0.000274658203125,1.10772705078125,0.2536163330078125
1701290500936733700,4.898733642578125,-0.01654052734375,1.045928955078125,0.2822113037109375
1701290500946808600,4.90880859375,-0.0251312255859375,1.00152587890625,0.303955078125
1701290500956883700,4.9188837890625,-0.0177459716796875,0.9793853759765625,0.3197479248046875
1701290500966959600,4.928959716796875,-0.0083160400390625,0.9658660888671875,0.3274993896484375
1701290500977034500,4.939034423828125,-0.0005340576171875,0.9566802978515625,0.3309783935546875
1701290500987109600,4.949109619140625,-0.0027313232421875,0.9479827880859375,0.3288421630859375
1701290500997185800,4.959185791015625,-0.0146026611328125,0.935821533203125,0.327117919921875
1701290501007260700,4.9692607421875,-0.015380859375,0.926177978515625,0.3311614990234375
1701290501017335600,4.97933544921875,-0.000518798828125,0.9250946044921875,0.3314208984375
1701290501027411700,4.98941162109375,0.0210418701171875,0.9296417236328125,0.3238372802734375
1701290501037486600,4.999486572265625,0.0428924560546875,0.9270172119140625,0.313873291015625
1701290501047561700,5.009561767578125,0.059600830078125,0.916046142578125,0.3006134033203125
1701290501057637600,5.0196376953125,0.07293701171875,0.8971405029296875,0.2827301025390625
1701290501067712500,5.02971240234375,0.0787811279296875,0.8861846923828125,0.2661590576171875
1701290501077787600,5.03978759765625,0.0758056640625,0.8892364501953125,0.2557830810546875
1701290501087863800,5.04986376953125,0.0567474365234375,0.9134521484375,0.2556610107421875
1701290501097938400,5.0599384765625,0.0196990966796875,0.9452667236328125,0.2430572509765625
1701290501108013600,5.070013671875,-0.0175628662109375,0.96160888671875,0.207977294921875
1701290501118089700,5.08008984375,-0.0429840087890625,0.9482269287109375,0.167236328125
1701290501128164600,5.09016455078125,-0.059783935546875,0.9319915771484375,0.1399383544921875
1701290501138239700,5.10023974609375,-0.071258544921875,0.931732177734375,0.1402740478515625
1701290501148315600,5.110315673828125,-0.086395263671875,0.946868896484375,0.1586456298828125
1701290501158390500,5.120390625,-0.1041412353515625,0.9683380126953125,0.1801300048828125
1701290501168465700,5.130465576171875,-0.1175689697265625,0.9813995361328125,0.2085418701171875
1701290501178541600,5.14054150390625,-0.1264190673828125,0.973052978515625,0.24542236328125
1701290501188616400,5.150616455078125,-0.1270904541015625,0.9561920166015625,0.2798004150390625
1701290501198691600,5.160691650390625,-0.127685546875,0.937591552734375,0.306884765625
1701290501208767700,5.170767822265625,-0.1345672607421875,0.9315948486328125,0.331787109375
1701290501218842600,5.180842529296875,-0.1445159912109375,0.924468994140625,0.347412109375
1701290501228917500,5.19091748046875,-0.147796630859375,0.920562744140625,0.34722900390625
1701290501238993700,5.20099365234375,-0.152740478515625,0.9292755126953125,0.348602294921875
1701290501249068500,5.211068603515625,-0.1571807861328125,0.942596435546875,0.34930419921875
1701290501259143700,5.221143798828125,-0.1660919189453125,0.9598236083984375,0.336395263671875
1701290501269218600,5.231218505859375,-0.182952880859375,0.972991943359375,0.3199615478515625
1701290501279294500,5.24129443359375,-0.1913299560546875,0.979705810546875,0.3031158447265625
1701290501289369600,5.25136962890625,-0.1932830810546875,0.9830169677734375,0.29229736328125
1701290501299444700,5.26144482421875,-0.1932373046875,0.9776153564453125,0.2838134765625
1701290501309520600,5.271520751953125,-0.189697265625,0.972137451171875,0.2774505615234375
1701290501319595500,5.281595458984375,-0.18316650390625,0.9734039306640625,0.2737274169921875
1701290501329670700,5.291670654296875,-0.17852783203125,0.9763031005859375,0.285888671875
1701290501339746800,5.301746826171875,-0.1712646484375,0.9648895263671875,0.3124542236328125
1701290501349821400,5.311821533203125,-0.1608428955078125,0.937896728515625,0.33367919921875
1701290501359896600,5.321896484375,-0.145538330078125,0.9085845947265625,0.34967041015625
1701290501369972700,5.33197265625,-0.12725830078125,0.8852691650390625,0.351348876953125
1701290501380047600,5.342047607421875,-0.110198974609375,0.8733978271484375,0.3487701416015625
1701290501390122800,5.352122802734375,-0.09674072265625,0.870513916015625,0.3523406982421875
1701290501400198700,5.36219873046875,-0.0897064208984375,0.87432861328125,0.354583740234375
1701290501410273500,5.3722734375,-0.089813232421875,0.8804931640625,0.3570404052734375
1701290501420348700,5.3823486328125,-0.0936126708984375,0.8853912353515625,0.3507080078125
1701290501430424600,5.392424560546875,-0.09381103515625,0.888916015625,0.34503173828125
1701290501440499500,5.40249951171875,-0.0955047607421875,0.89251708984375,0.3390655517578125
1701290501450574600,5.41257470703125,-0.0970916748046875,0.8981475830078125,0.3366546630859375
1701290501460650800,5.422650634765625,-0.1045684814453125,0.902587890625,0.33587646484375
1701290501470725600,5.4327255859375,-0.116302490234375,0.89837646484375,0.3379669189453125
1701290501480800500,5.442800537109375,-0.1222076416015625,0.8868560791015625,0.3409423828125
1701290501490876700,5.452876708984375,-0.1234588623046875,0.86602783203125,0.34332275390625
1701290501500951600,5.46295166015625,-0.126007080078125,0.8472137451171875,0.339569091796875
1701290501511026700,5.473026611328125,-0.1276702880859375,0.83612060546875,0.3308258056640625
1701290501521102600,5.4831025390625,-0.1324920654296875,0.8353424072265625,0.3184661865234375
1701290501531177500,5.493177490234375,-0.14068603515625,0.8442840576171875,0.30078125
1701290501541252600,5.503252685546875,-0.1504058837890625,0.8565216064453125,0.2847747802734375
1701290501551328800,5.513328857421875,-0.162628173828125,0.8680877685546875,0.2761993408203125
1701290501561403400,5.5234033203125,-0.172332763671875,0.882232666015625,0.2717437744140625
1701290501571478500,5.533478515625,-0.1736297607421875,0.895721435546875,0.2730865478515625
1701290501581554700,5.5435546875,-0.1716461181640625,0.9049072265625,0.2767486572265625
1701290501591629600,5.553629638671875,-0.1718597412109375,0.90679931640625,0.281982421875
1701290501601704700,5.56370458984375,-0.17474365234375,0.9056549072265625,0.28704833984375
1701290501611780600,5.573780517578125,-0.1763153076171875,0.9029541015625,0.291015625
1701290501621855500,5.58385546875,-0.1808929443359375,0.897918701171875,0.29791259765625
1701290501631930600,5.5939306640625,-0.1848602294921875,0.890350341796875,0.3095550537109375
1701290501642006500,5.604006591796875,-0.18768310546875,0.8773651123046875,0.3263702392578125
1701290501652081700,5.61408154296875,-0.1865386962890625,0.867950439453125,0.3401031494140625
1701290501662156500,5.624156494140625,-0.1862640380859375,0.8677978515625,0.3432159423828125
1701290501672232700,5.634232666015625,-0.1844482421875,0.8623504638671875,0.3454742431640625
1701290501682307800,5.644307861328125,-0.1846923828125,0.85467529296875,0.3501434326171875
1701290501692382500,5.654382568359375,-0.184600830078125,0.857330322265625,0.3528289794921875
1701290501702458600,5.664458740234375,-0.1824188232421875,0.8688507080078125,0.3567352294921875
1701290501712533800,5.67453369140625,-0.1881103515625,0.872833251953125,0.362091064453125
1701290501722608600,5.684608642578125,-0.19537353515625,0.871551513671875,0.3698272705078125
1701290501732684500,5.6946845703125,-0.1959228515625,0.8678131103515625,0.3773651123046875
1701290501742759700,5.704759765625,-0.191009521484375,0.8687896728515625,0.3777313232421875
1701290501752834600,5.71483447265625,-0.181488037109375,0.876861572265625,0.3681640625
1701290501762910700,5.72491064453125,-0.163238525390625,0.8802947998046875,0.354461669921875
1701290501772985600,5.734985595703125,-0.1416015625,0.8696746826171875,0.34417724609375
1701290501783060500,5.745060546875,-0.1251373291015625,0.8489227294921875,0.3387603759765625
1701290501793136600,5.75513671875,-0.115966796875,0.8364410400390625,0.32513427734375
1701290501803211800,5.765211669921875,-0.1087188720703125,0.8621978759765625,0.299163818359375
1701290501813286700,5.77528662109375,-0.0999298095703125,0.9462432861328125,0.263275146484375
1701290501823361500,5.785361572265625,-0.094818115234375,1.0559234619140625,0.2369842529296875
1701290501833437700,5.795437744140625,-0.1152801513671875,1.12091064453125,0.2146759033203125
1701290501843512600,5.8055126953125,-0.17120361328125,1.090057373046875,0.1954498291015625
1701290501853587700,5.815587646484375,-0.22308349609375,0.99298095703125,0.2034912109375
1701290501863663600,5.82566357421875,-0.233062744140625,0.9456329345703125,0.2552490234375
1701290501873738500,5.835738525390625,-0.2436676025390625,1.010284423828125,0.322601318359375
1701290501883813600,5.845813720703125,-0.2738189697265625,1.109893798828125,0.3942413330078125
1701290501893889800,5.855889892578125,-0.3038482666015625,1.1822662353515625,0.4547882080078125
1701290501903964400,5.86596435546875,-0.3173980712890625,1.19329833984375,0.4802398681640625
1701290501914039600,5.87603955078125,-0.2783050537109375,1.1240692138671875,0.45697021484375
1701290501924115700,5.88611572265625,-0.22412109375,1.02667236328125,0.393310546875
1701290501934191000,5.896191162109375,-0.2012176513671875,0.9608154296875,0.328857421875
1701290501944266000,5.906265869140625,-0.19952392578125,0.914459228515625,0.2737884521484375
1701290501954342100,5.916342041015625,-0.202301025390625,0.87890625,0.2380828857421875
1701290501964417000,5.9264169921875,-0.191131591796875,0.8572998046875,0.218505859375
1701290501974492200,5.9364921875,-0.14593505859375,0.8594970703125,0.203369140625
1701290501984568000,5.946568115234375,-0.0607757568359375,0.88671875,0.2008514404296875
1701290501994643000,5.956642822265625,0.038665771484375,0.922882080078125,0.19927978515625
1701290502004718000,5.966718017578125,0.1100006103515625,0.9620208740234375,0.1945343017578125
1701290502014794000,5.9767939453125,0.1380615234375,0.9963836669921875,0.196533203125
1701290502024868900,5.986868896484375,0.139801025390625,1.02154541015625,0.2039947509765625
1701290502034944000,5.996944091796875,0.132232666015625,1.0376739501953125,0.2307281494140625
1701290502045020200,6.007020263671875,0.103759765625,1.04144287109375,0.2761993408203125
1701290502055095000,6.017094970703125,0.050567626953125,1.023590087890625,0.3327178955078125
1701290502065170200,6.027170166015625,-0.0057373046875,0.9868316650390625,0.3841552734375
1701290502075246000,6.03724609375,-0.0238494873046875,0.945159912109375,0.419281005859375
1701290502085321000,6.047321044921875,-0.004486083984375,0.9083404541015625,0.4222412109375
1701290502095396000,6.05739599609375,0.02740478515625,0.8962860107421875,0.372100830078125
1701290502105472000,6.067471923828125,0.0494537353515625,0.9129180908203125,0.2946624755859375
1701290502115547100,6.077547119140625,0.0608673095703125,0.9405517578125,0.2103118896484375
1701290502125622000,6.0876220703125,0.0658111572265625,0.9467620849609375,0.1354522705078125
1701290502135698200,6.0976982421875,0.066009521484375,0.9281005859375,0.0870819091796875
1701290502145773000,6.10777294921875,0.06396484375,0.914520263671875,0.07843017578125
1701290502155848000,6.117847900390625,0.054779052734375,0.930572509765625,0.101287841796875
1701290502165924000,6.127924072265625,0.02825927734375,0.970733642578125,0.15472412109375
1701290502175999200,6.137999267578125,-0.0093841552734375,1.0056304931640625,0.2267913818359375
1701290502186074000,6.14807421875,-0.034637451171875,1.0138702392578125,0.2838592529296875
1701290502196150000,6.15814990234375,-0.0298614501953125,1.0103607177734375,0.3278656005859375
1701290502206225200,6.16822509765625,-0.0016632080078125,0.998748779296875,0.3527069091796875
1701290502216300000,6.178300048828125,0.0268096923828125,0.979522705078125,0.35516357421875
1701290502226376000,6.1883759765625,0.048370361328125,0.965606689453125,0.3344268798828125
1701290502236451000,6.198451171875,0.0728607177734375,0.9637298583984375,0.2977142333984375
1701290502246526000,6.20852587890625,0.0988311767578125,0.9648590087890625,0.2557373046875
1701290502256602000,6.21860205078125,0.12115478515625,0.968475341796875,0.2148284912109375
1701290502266677200,6.22867724609375,0.1327972412109375,0.972930908203125,0.1874237060546875
1701290502276752000,6.238751953125,0.1427764892578125,0.9691162109375,0.1787261962890625
1701290502286828000,6.248828125,0.148590087890625,0.9609527587890625,0.188568115234375
1701290502296903200,6.258903076171875,0.143280029296875,0.95855712890625,0.225067138671875
1701290502306978000,6.26897802734375,0.1348876953125,0.9683380126953125,0.2700042724609375
1701290502317054000,6.279053955078125,0.135345458984375,0.972320556640625,0.2942657470703125
1701290502327129000,6.289129150390625,0.1339111328125,0.971710205078125,0.3006439208984375
1701290502337204000,6.299203857421875,0.1255950927734375,0.966796875,0.299072265625
1701290502347280100,6.309280029296875,0.1152496337890625,0.957000732421875,0.2926483154296875
1701290502357355000,6.31935498046875,0.0962982177734375,0.945404052734375,0.2866058349609375
1701290502367430000,6.329429931640625,0.0809326171875,0.933380126953125,0.280853271484375
1701290502377506000,6.339506103515625,0.067657470703125,0.930511474609375,0.2773590087890625
1701290502387581200,6.349581298828125,0.066070556640625,0.9374847412109375,0.281524658203125
1701290502397656000,6.359656005859375,0.073577880859375,0.9441375732421875,0.2830047607421875
1701290502407732000,6.36973193359375,0.0858306884765625,0.9449310302734375,0.27630615234375
1701290502417807000,6.37980712890625,0.09625244140625,0.939910888671875,0.265106201171875
1701290502427882000,6.389882080078125,0.1057891845703125,0.9336700439453125,0.2567138671875
1701290502437958000,6.3999580078125,0.115142822265625,0.9329986572265625,0.2473602294921875
1701290502448033000,6.410032958984375,0.12420654296875,0.945037841796875,0.2421417236328125
1701290502458108200,6.420108154296875,0.128814697265625,0.953948974609375,0.230804443359375
1701290502468184000,6.43018408203125,0.133575439453125,0.9518890380859375,0.2180023193359375
1701290502478259200,6.44025927734375,0.13812255859375,0.9499053955078125,0.207977294921875
1701290502488334000,6.450333984375,0.1376495361328125,0.953521728515625,0.2049713134765625
1701290502498410000,6.460409912109375,0.1331024169921875,0.966796875,0.2010650634765625
1701290502508485000,6.470485107421875,0.1243438720703125,0.9842376708984375,0.2046966552734375
1701290502518560300,6.480560302734375,0.1183319091796875,0.99273681640625,0.202117919921875
1701290502528636000,6.490635986328125,0.1151123046875,0.99053955078125,0.1987152099609375
1701290502538711000,6.5007109375,0.1146392822265625,0.9789276123046875,0.1970977783203125
1701290502548786200,6.5107861328125,0.1174468994140625,0.970428466796875,0.2005462646484375
1701290502558862000,6.520862060546875,0.119720458984375,0.9655914306640625,0.2055816650390625
1701290502568937000,6.53093701171875,0.12445068359375,0.964263916015625,0.2183837890625
1701290502579012000,6.54101220703125,0.13128662109375,0.95965576171875,0.2309722900390625
1701290502589087000,6.5510869140625,0.13897705078125,0.9522705078125,0.2428741455078125
1701290502599163100,6.5611630859375,0.1454010009765625,0.9501953125,0.248504638671875
1701290502609238300,6.57123828125,0.143524169921875,0.954925537109375,0.2464447021484375
1701290502619314000,6.58131396484375,0.1302490234375,0.96063232421875,0.242340087890625
1701290502629389000,6.59138916015625,0.1097259521484375,0.9607696533203125,0.2366790771484375
1701290502639464200,6.601464111328125,0.0947265625,0.9496612548828125,0.231964111328125
1701290502649539000,6.6115390625,0.0933074951171875,0.9387969970703125,0.2350616455078125
1701290502659615000,6.621614990234375,0.1025238037109375,0.9364013671875,0.2352752685546875
1701290502669690000,6.631690185546875,0.1141815185546875,0.945556640625,0.2339935302734375
1701290502679765000,6.641764892578125,0.1139678955078125,0.9532318115234375,0.2321929931640625
1701290502689841200,6.651841064453125,0.116363525390625,0.956390380859375,0.234039306640625
1701290502699916000,6.661916015625,0.126129150390625,0.9507293701171875,0.238677978515625
1701290502709991000,6.671990966796875,0.1400299072265625,0.9378662109375,0.2439727783203125
1701290502720067000,6.682067138671875,0.15325927734375,0.926910400390625,0.25091552734375
1701290502730142200,6.69214208984375,0.153411865234375,0.919219970703125,0.2601776123046875
1701290502740217000,6.702217041015625,0.1467742919921875,0.919342041015625,0.270233154296875
1701290502750293000,6.71229296875,0.135711669921875,0.921661376953125,0.2851104736328125
1701290502760368000,6.7223681640625,0.131561279296875,0.9285430908203125,0.290618896484375
1701290502770443000,6.732443115234375,0.138671875,0.9387359619140625,0.28515625
1701290502780519000,6.742518798828125,0.149383544921875,0.951141357421875,0.2736968994140625
1701290502790594000,6.752593994140625,0.1473236083984375,0.9669036865234375,0.2589263916015625
1701290502800669000,6.7626689453125,0.1348724365234375,0.9730682373046875,0.2456817626953125
1701290502810745000,6.7727451171875,0.1245574951171875,0.972869873046875,0.240234375
1701290502820820000,6.782820068359375,0.116546630859375,0.9798583984375,0.2389678955078125
1701290502830895000,6.79289501953125,0.11004638671875,0.9848480224609375,0.2442169189453125
1701290502840971000,6.802970947265625,0.1035919189453125,0.98638916015625,0.245361328125
1701290502851046100,6.813046142578125,0.100555419921875,0.981658935546875,0.2491607666015625
1701290502861121300,6.823121337890625,0.1104888916015625,0.9754791259765625,0.2542724609375
1701290502871197000,6.833197021484375,0.130584716796875,0.96734619140625,0.2638092041015625
1701290502881272000,6.84327197265625,0.1514739990234375,0.9598541259765625,0.27490234375
1701290502891347200,6.85334716796875,0.1648101806640625,0.9497528076171875,0.2859344482421875
1701290502901423000,6.863423095703125,0.1646575927734375,0.93450927734375,0.2968597412109375
1701290502911498000,6.873498046875,0.16265869140625,0.9325408935546875,0.3265838623046875
1701290502921573000,6.883572998046875,0.1734619140625,0.95245361328125,0.3603973388671875
1701290502931648300,6.893648193359375,0.19024658203125,0.9681549072265625,0.3704376220703125
1701290502941723400,6.903723388671875,0.2083282470703125,0.974151611328125,0.35723876953125
1701290502951798300,6.91379833984375,0.216217041015625,0.97955322265625,0.3503265380859375
1701290502961874200,6.923874267578125,0.2068939208984375,1.001861572265625,0.3624420166015625
1701290502971949300,6.93394921875,0.18182373046875,1.0434112548828125,0.3865509033203125
1701290502982024400,6.9440244140625,0.1439208984375,1.09234619140625,0.4036102294921875
1701290502992100400,6.954100341796875,0.1076812744140625,1.1360015869140625,0.4108734130859375
1701290503002175200,6.96417529296875,0.0831146240234375,1.16455078125,0.407562255859375
1701290503012250400,6.97425048828125,0.05950927734375,1.1756744384765625,0.3950347900390625
1701290503022326300,6.984326171875,0.0190887451171875,1.1702423095703125,0.3717803955078125
1701290503032401400,6.9944013671875,-0.02972412109375,1.14556884765625,0.341583251953125
1701290503042476300,7.004476318359375,-0.07562255859375,1.117645263671875,0.3066253662109375
1701290503052552200,7.01455224609375,-0.1077880859375,1.09564208984375,0.28289794921875
1701290503062627300,7.02462744140625,-0.1275634765625,1.079498291015625,0.2702178955078125
1701290503072702500,7.034702392578125,-0.1289520263671875,1.0713958740234375,0.2656402587890625
1701290503082778000,7.044778076171875,-0.12823486328125,1.066253662109375,0.256134033203125
1701290503092853200,7.054853271484375,-0.129730224609375,1.053070068359375,0.2349395751953125
1701290503102928400,7.064928466796875,-0.1216278076171875,1.0316162109375,0.222259521484375
1701290503113004300,7.07500439453125,-0.0935821533203125,1.0056610107421875,0.2213134765625
1701290503123079400,7.085079345703125,-0.0550689697265625,0.9875030517578125,0.233062744140625
1701290503133154300,7.095154296875,-0.0141754150390625,0.965423583984375,0.2500457763671875
1701290503143230200,7.105230224609375,0.0196533203125,0.9462432861328125,0.2702178955078125
1701290503153305300,7.115305419921875,0.0517730712890625,0.939666748046875,0.2890625
1701290503163380500,7.12538037109375,0.088623046875,0.938201904296875,0.298095703125
1701290503173456400,7.135456298828125,0.1508636474609375,0.94110107421875,0.281829833984375
1701290503183531300,7.14553125,0.2227783203125,0.9550018310546875,0.2576751708984375
1701290503193606400,7.1556064453125,0.2552032470703125,0.965576171875,0.23834228515625
1701290503203682300,7.165682373046875,0.25238037109375,0.98223876953125,0.2218475341796875
1701290503213757200,7.175757080078125,0.2271575927734375,0.9964599609375,0.2159271240234375
1701290503223832300,7.185832275390625,0.19049072265625,1.004547119140625,0.2039337158203125
1701290503233908500,7.195908447265625,0.14752197265625,1.014556884765625,0.2001495361328125
1701290503243983400,7.2059833984375,0.096099853515625,1.0257720947265625,0.202911376953125
1701290503254058200,7.216058349609375,0.0438079833984375,1.0248565673828125,0.1963653564453125
1701290503264134400,7.226134521484375,-0.0081634521484375,1.014892578125,0.1840972900390625
1701290503274209300,7.236209228515625,-0.03997802734375,1.004638671875,0.17236328125
1701290503284284400,7.246284423828125,-0.0464019775390625,0.99273681640625,0.1716766357421875
1701290503294360300,7.2563603515625,-0.0394744873046875,0.97998046875,0.175994873046875
1701290503304435200,7.266435302734375,-0.0347137451171875,0.9606475830078125,0.1721954345703125
1701290503314510300,7.27651025390625,-0.0380401611328125,0.9460601806640625,0.169097900390625
1701290503324586500,7.28658642578125,-0.044586181640625,0.9346160888671875,0.16949462890625
1701290503334661000,7.2966611328125,-0.04644775390625,0.927337646484375,0.172760009765625
1701290503344736300,7.306736328125,-0.045166015625,0.926055908203125,0.1875152587890625
1701290503354812400,7.3168125,-0.0390167236328125,0.925933837890625,0.196044921875
1701290503364887300,7.32688720703125,-0.03656005859375,0.9252471923828125,0.2085113525390625
1701290503374962400,7.33696240234375,-0.03546142578125,0.9196929931640625,0.214752197265625
1701290503385038300,7.347038330078125,-0.0415802001953125,0.90704345703125,0.218505859375
1701290503395113200,7.35711328125,-0.050933837890625,0.895263671875,0.2139739990234375
1701290503405188400,7.367188232421875,-0.0637359619140625,0.890350341796875,0.197418212890625
1701290503415264300,7.37726416015625,-0.0810546875,0.8932037353515625,0.178619384765625
1701290503425339100,7.387339111328125,-0.0979156494140625,0.9054107666015625,0.163787841796875
1701290503435414300,7.397414306640625,-0.1127166748046875,0.918060302734375,0.1569976806640625
1701290503445490400,7.407490478515625,-0.1232757568359375,0.922943115234375,0.159271240234375
1701290503455565300,7.4175654296875,-0.1338348388671875,0.9263916015625,0.165771484375
1701290503465640200,7.42764013671875,-0.140289306640625,0.9328460693359375,0.17584228515625
1701290503475716400,7.43771630859375,-0.1449127197265625,0.941192626953125,0.191436767578125
1701290503485791200,7.447791259765625,-0.1484527587890625,0.94256591796875,0.20916748046875
1701290503495866400,7.457866455078125,-0.153076171875,0.9390716552734375,0.235107421875
1701290503505942300,7.4679423828125,-0.157257080078125,0.933502197265625,0.2645721435546875
1701290503516017400,7.478017333984375,-0.15704345703125,0.9276123046875,0.287567138671875
1701290503526092300,7.48809228515625,-0.155242919921875,0.9311065673828125,0.3033905029296875
1701290503536168400,7.49816845703125,-0.15087890625,0.931549072265625,0.3204803466796875
1701290503546243300,7.508243408203125,-0.143280029296875,0.9241180419921875,0.3332977294921875
1701290503556318200,7.518318115234375,-0.1353302001953125,0.909942626953125,0.3390045166015625
1701290503566394400,7.528394287109375,-0.1275177001953125,0.8979034423828125,0.3361968994140625
1701290503576469500,7.538469482421875,-0.118011474609375,0.8933258056640625,0.3388214111328125
1701290503586544400,7.54854443359375,-0.118682861328125,0.8836517333984375,0.33477783203125
1701290503596620300,7.558620361328125,-0.125579833984375,0.8630523681640625,0.33221435546875
1701290503606695400,7.5686953125,-0.1329803466796875,0.8429107666015625,0.330474853515625
1701290503616770300,7.578770263671875,-0.14031982421875,0.8326568603515625,0.3252105712890625
1701290503626846200,7.58884619140625,-0.1453857421875,0.8377227783203125,0.314544677734375
1701290503636921300,7.59892138671875,-0.1469573974609375,0.858642578125,0.302703857421875
1701290503646996200,7.608996337890625,-0.1453399658203125,0.8818511962890625,0.29583740234375
1701290503657072400,7.619072265625,-0.141937255859375,0.8968353271484375,0.2912445068359375
1701290503667147500,7.6291474609375,-0.13916015625,0.8924102783203125,0.2833709716796875
1701290503677222100,7.63922216796875,-0.1358489990234375,0.873809814453125,0.2740478515625
1701290503687298300,7.64929833984375,-0.1291046142578125,0.8443450927734375,0.2676239013671875
1701290503697373400,7.65937353515625,-0.1221466064453125,0.8214263916015625,0.271697998046875
1701290503707448300,7.6694482421875,-0.1165313720703125,0.813812255859375,0.278717041015625
1701290503717524200,7.679524169921875,-0.118011474609375,0.821136474609375,0.287841796875
1701290503727599400,7.689599365234375,-0.1250762939453125,0.8369140625,0.2993621826171875
1701290503737674200,7.69967431640625,-0.1428680419921875,0.8619842529296875,0.30853271484375
1701290503747750400,7.70975048828125,-0.1707763671875,0.8887939453125,0.321746826171875
1701290503757825300,7.7198251953125,-0.1960906982421875,0.917388916015625,0.3366851806640625
1701290503767900200,7.729900146484375,-0.217071533203125,0.9405364990234375,0.3455352783203125
1701290503777976300,7.739976318359375,-0.2316131591796875,0.9555511474609375,0.35015869140625
1701290503788051500,7.750051513671875,-0.24420166015625,0.9562530517578125,0.3470611572265625
1701290503798126300,7.760126220703125,-0.2591552734375,0.9497528076171875,0.3343353271484375
1701290503808202200,7.7702021484375,-0.274993896484375,0.9416351318359375,0.3193817138671875
1701290503818277400,7.78027734375,-0.2850799560546875,0.940460205078125,0.306671142578125
1701290503828352300,7.790352294921875,-0.2849578857421875,0.934539794921875,0.2997894287109375
1701290503838428200,7.80042822265625,-0.276824951171875,0.9136962890625,0.304351806640625
1701290503848503300,7.81050341796875,-0.2603302001953125,0.8807525634765625,0.313140869140625
1701290503858578200,7.820578125,-0.233856201171875,0.8657989501953125,0.319580078125
1701290503868654300,7.830654296875,-0.210601806640625,0.863006591796875,0.3218994140625
1701290503878729200,7.840729248046875,-0.19219970703125,0.885528564453125,0.31317138671875
1701290503888804400,7.850804443359375,-0.1588287353515625,0.9700469970703125,0.302490234375
1701290503898880300,7.86088037109375,-0.13336181640625,1.072113037109375,0.290069580078125
1701290503908955400,7.870955322265625,-0.1322479248046875,1.1302642822265625,0.2630157470703125
1701290503919030500,7.881030517578125,-0.1624298095703125,1.093597412109375,0.2286834716796875
1701290503929106200,7.891106201171875,-0.172515869140625,0.975250244140625,0.2174072265625
1701290503939181600,7.901181640625,-0.1486663818359375,0.892730712890625,0.2523193359375
1701290503949256700,7.911256591796875,-0.129913330078125,0.89605712890625,0.320953369140625
1701290503959332600,7.92133251953125,-0.1514434814453125,0.958282470703125,0.41131591796875
1701290503969407500,7.931407470703125,-0.206695556640625,1.050567626953125,0.488922119140625
1701290503979482600,7.941482666015625,-0.2242584228515625,1.1407318115234375,0.525634765625
1701290503989558800,7.951558837890625,-0.165557861328125,1.1604156494140625,0.4908294677734375
1701290503999633700,7.961633544921875,-0.0924530029296875,1.1132049560546875,0.4190216064453125
1701290504009708500,7.97170849609375,-0.0722198486328125,1.0529022216796875,0.340179443359375
1701290504019784700,7.98178466796875,-0.1112823486328125,1.0091400146484375,0.2489013671875
1701290504029859600,7.991859619140625,-0.185577392578125,0.9820404052734375,0.1772003173828125
1701290504039934700,8.001934814453126,-0.266815185546875,0.95782470703125,0.149932861328125
1701290504050010600,8.0120107421875,-0.31402587890625,0.9299163818359375,0.165618896484375
1701290504060085500,8.02208544921875,-0.2791900634765625,0.9150848388671875,0.1970367431640625
1701290504070160600,8.03216064453125,-0.173980712890625,0.92535400390625,0.2294158935546875
1701290504080236800,8.04223681640625,-0.03973388671875,0.93701171875,0.2312469482421875
1701290504090311400,8.0523115234375,0.101806640625,0.937286376953125,0.212371826171875
1701290504100386600,8.062386474609376,0.2245635986328125,0.930206298828125,0.19287109375
1701290504110462700,8.072462646484375,0.297271728515625,0.8983612060546875,0.1844635009765625
1701290504120537600,8.08253759765625,0.31634521484375,0.853759765625,0.196533203125
1701290504130612700,8.09261279296875,0.2811279296875,0.848480224609375,0.23883056640625
1701290504140688600,8.102688720703124,0.1890869140625,0.8864288330078125,0.31781005859375
1701290504150763500,8.112763427734375,0.0564422607421875,0.9123687744140625,0.4056396484375
1701290504160838700,8.122838623046874,-0.0631103515625,0.9226531982421875,0.4860687255859375
1701290504170914600,8.13291455078125,-0.1063690185546875,0.9290618896484375,0.5465240478515625
1701290504180989400,8.142989501953124,-0.09320068359375,0.9316253662109375,0.5521087646484375
1701290504191064600,8.153064697265625,-0.0792694091796875,0.9472503662109375,0.5123443603515625
1701290504201140700,8.163140625,-0.0718231201171875,0.9699249267578125,0.4329071044921875
1701290504211215600,8.173215576171875,-0.046295166015625,0.9959716796875,0.324493408203125
1701290504221290500,8.18329052734375,-0.0104522705078125,1.0103607177734375,0.21044921875
1701290504231366700,8.19336669921875,0.0288848876953125,1.006439208984375,0.1270294189453125
1701290504241441800,8.20344189453125,0.071258544921875,0.9898834228515625,0.0933074951171875
1701290504251517400,8.213517333984376,0.11480712890625,0.9797821044921875,0.092620849609375
1701290504261592600,8.223592529296875,0.1416015625,0.979827880859375,0.108917236328125
1701290504271667700,8.233667724609376,0.14794921875,0.9830780029296875,0.1383209228515625
1701290504281742600,8.24374267578125,0.1420745849609375,0.991851806640625,0.1719207763671875
1701290504291818500,8.253818603515626,0.143524169921875,0.9858856201171875,0.220703125
1701290504301893600,8.2638935546875,0.1590423583984375,0.9715728759765625,0.2899932861328125
1701290504311969500,8.273969482421874,0.1586151123046875,0.959716796875,0.34429931640625
1701290504322044700,8.284044677734375,0.1612396240234375,0.9472503662109375,0.37506103515625
1701290504332119800,8.294119873046874,0.1648101806640625,0.9222259521484375,0.3765411376953125
1701290504342194400,8.3041943359375,0.1541595458984375,0.9115447998046875,0.35943603515625
1701290504352270600,8.3142705078125,0.1448974609375,0.906463623046875,0.322601318359375
1701290504362345700,8.324345703125,0.1312713623046875,0.9039306640625,0.27581787109375
1701290504372421400,8.33442138671875,0.1123199462890625,0.908477783203125,0.2296295166015625
1701290504382496500,8.34449658203125,0.09234619140625,0.9278106689453125,0.1952056884765625
1701290504392571600,8.354571533203124,0.0808563232421875,0.9568634033203125,0.1727447509765625
1701290504402646500,8.364646484375,0.0789031982421875,0.9838409423828125,0.1550140380859375
1701290504412722700,8.37472265625,0.0865936279296875,0.99884033203125,0.14532470703125
1701290504422797600,8.384797607421875,0.0962677001953125,0.9877471923828125,0.1383056640625
1701290504432873700,8.394873779296875,0.0980224609375,0.9662322998046875,0.138427734375
1701290504442948600,8.404948486328125,0.09161376953125,0.95220947265625,0.145904541015625
1701290504453023700,8.415023681640625,0.10089111328125,0.9490203857421875,0.157928466796875
1701290504463098600,8.4250986328125,0.11285400390625,0.9648284912109375,0.17108154296875
1701290504473174500,8.435174560546875,0.125213623046875,0.97869873046875,0.183929443359375
1701290504483249700,8.445249755859376,0.131744384765625,0.9727630615234375,0.1848907470703125
1701290504493325800,8.455325927734375,0.1361846923828125,0.956085205078125,0.19287109375
1701290504503400400,8.465400390625,0.142181396484375,0.949615478515625,0.211395263671875
1701290504513475600,8.4754755859375,0.1453399658203125,0.9532012939453125,0.2408599853515625
1701290504523551700,8.4855517578125,0.14764404296875,0.954742431640625,0.268341064453125
1701290504533626600,8.495626708984375,0.151641845703125,0.9446868896484375,0.2780914306640625
1701290504543701800,8.50570166015625,0.16058349609375,0.9318084716796875,0.27679443359375
1701290504553777700,8.515777587890625,0.1725311279296875,0.9280548095703125,0.279327392578125
1701290504563852500,8.5258525390625,0.181732177734375,0.9425201416015625,0.2784576416015625
1701290504573927700,8.535927734375,0.1799468994140625,0.9629364013671875,0.2755889892578125
1701290504584003600,8.546003662109374,0.167755126953125,0.96807861328125,0.2598419189453125
1701290504594078500,8.556078369140625,0.147674560546875,0.9594573974609375,0.23223876953125
1701290504604153600,8.566153564453124,0.1283416748046875,0.9507293701171875,0.206573486328125
1701290504614229800,8.576229736328125,0.112335205078125,0.952239990234375,0.190704345703125
1701290504624304600,8.5863046875,0.0917510986328125,0.9627685546875,0.1846771240234375
1701290504634379500,8.596379638671875,0.0727081298828125,0.97222900390625,0.18603515625
1701290504644455700,8.60645556640625,0.0742034912109375,0.9630584716796875,0.1929168701171875
1701290504654530600,8.616530517578125,0.1063995361328125,0.94317626953125,0.21319580078125
1701290504664605700,8.626605712890624,0.1478118896484375,0.93206787109375,0.25457763671875
1701290504674681600,8.636681640625,0.1789398193359375,0.931671142578125,0.2939910888671875
1701290504684756500,8.646756591796875,0.198394775390625,0.9315032958984375,0.3189849853515625
1701290504694831600,8.65683154296875,0.2100830078125,0.922821044921875,0.3305206298828125
1701290504704907800,8.66690771484375,0.2118988037109375,0.9112701416015625,0.3282623291015625
1701290504714982400,8.676982421875,0.2001190185546875,0.89801025390625,0.31280517578125
1701290504725057500,8.6870576171875,0.1795196533203125,0.9088134765625,0.30108642578125
1701290504735133700,8.6971337890625,0.1550445556640625,0.930938720703125,0.2958984375
1701290504745208600,8.70720849609375,0.140380859375,0.953033447265625,0.2868499755859375
1701290504755283700,8.71728369140625,0.13946533203125,0.97100830078125,0.266571044921875
1701290504765359600,8.727359619140625,0.1424102783203125,0.9754638671875,0.240966796875
1701290504775434500,8.7374345703125,0.14727783203125,0.9759063720703125,0.2195281982421875
1701290504785509600,8.747509521484375,0.150665283203125,0.9755096435546875,0.2113494873046875
1701290504795585500,8.75758544921875,0.1514434814453125,0.9789276123046875,0.2192535400390625
1701290504805660700,8.76766064453125,0.144256591796875,0.9755096435546875,0.235443115234375
1701290504815735600,8.777735595703126,0.1209716796875,0.957763671875,0.2496490478515625
1701290504825811700,8.787811767578125,0.0802764892578125,0.9461822509765625,0.260528564453125
1701290504835886600,8.797886474609374,0.0420989990234375,0.9456024169921875,0.2877197265625
1701290504845961500,8.80796142578125,0.040679931640625,0.97491455078125,0.343231201171875
1701290504856037600,8.81803759765625,0.0889892578125,1.0440521240234375,0.401153564453125
1701290504866112800,8.82811279296875,0.14996337890625,1.1054534912109375,0.4183349609375
1701290504876187600,8.838187744140624,0.1914215087890625,1.1434783935546875,0.4093170166015625
1701290504886263600,8.848263671875,0.2066192626953125,1.1598663330078125,0.404541015625
1701290504896338700,8.858338623046874,0.180084228515625,1.157501220703125,0.4167633056640625
1701290504906413600,8.86841357421875,0.1155853271484375,1.1519012451171875,0.440704345703125
1701290504916489700,8.87848974609375,0.0463714599609375,1.151702880859375,0.4581756591796875
1701290504926564600,8.888564697265625,0.0067901611328125,1.1649017333984375,0.4602813720703125
1701290504936640000,8.898639892578124,-0.0071868896484375,1.1746978759765625,0.443939208984375
1701290504946716000,8.9087158203125,-0.0186920166015625,1.173370361328125,0.416778564453125
1701290504956791000,8.918791015625,-0.039337158203125,1.1558685302734375,0.37664794921875
1701290504966866000,8.928865966796875,-0.0570526123046875,1.1224822998046875,0.327911376953125
1701290504976942000,8.938942138671875,-0.04827880859375,1.104248046875,0.2881011962890625
1701290504987017000,8.949016845703126,-0.03009033203125,1.1019134521484375,0.2576904296875
1701290504997092000,8.959092041015625,-0.032318115234375,1.10211181640625,0.2149658203125
1701290505007168000,8.96916796875,-0.053253173828125,1.093780517578125,0.1697845458984375
1701290505017243000,8.979242919921875,-0.0677642822265625,1.0817718505859375,0.138885498046875
1701290505027318000,8.989318115234376,-0.0430450439453125,1.0457763671875,0.1309814453125
1701290505037394000,8.999393798828125,0.016021728515625,1.00347900390625,0.1611175537109375
1701290505047468800,9.00946875,0.08465576171875,0.9744110107421875,0.205902099609375
1701290505057544000,9.0195439453125,0.1554107666015625,0.9621734619140625,0.233612060546875
1701290505067620000,9.0296201171875,0.228240966796875,0.9715118408203125,0.243743896484375
1701290505077695000,9.039695068359375,0.304290771484375,0.9836273193359375,0.244537353515625
1701290505087770000,9.04977001953125,0.340576171875,0.99969482421875,0.2432098388671875
1701290505097846000,9.059845947265625,0.29754638671875,1.009552001953125,0.221649169921875
1701290505107921000,9.0699208984375,0.23809814453125,0.997833251953125,0.179412841796875
1701290505117996000,9.07999609375,0.187408447265625,0.9879913330078125,0.1492767333984375
1701290505128072000,9.090072021484374,0.12469482421875,0.9989166259765625,0.1386566162109375
1701290505138146800,9.100146728515625,0.06341552734375,1.0125274658203125,0.134307861328125
1701290505148222000,9.110221923828124,-0.0005340576171875,1.024261474609375,0.1103057861328125
1701290505158298000,9.120298095703125,-0.0413970947265625,1.0318756103515625,0.075836181640625
1701290505168373000,9.130373046875,-0.0628662109375,1.0222625732421875,0.052093505859375
1701290505178448000,9.14044775390625,-0.0647125244140625,0.9938507080078125,0.0442047119140625
1701290505188524000,9.15052392578125,-0.0383758544921875,0.9674835205078125,0.0532073974609375
1701290505198599000,9.160598876953125,0.001220703125,0.94451904296875,0.079742431640625
1701290505208674000,9.170674072265625,0.026031494140625,0.9292755126953125,0.105712890625
1701290505218750000,9.18075,0.0308990478515625,0.9121551513671875,0.1357269287109375
1701290505228824800,9.190824951171875,0.027313232421875,0.8956756591796875,0.18316650390625
1701290505238900000,9.20089990234375,0.021453857421875,0.8803558349609375,0.229278564453125
1701290505248976000,9.210975830078125,0.0214691162109375,0.870819091796875,0.26995849609375
1701290505259050800,9.22105078125,0.024383544921875,0.8699798583984375,0.3024444580078125
1701290505269126000,9.2311259765625,0.0225830078125,0.871185302734375,0.335235595703125
1701290505279202000,9.2412021484375,0.0078277587890625,0.870513916015625,0.34954833984375
1701290505289277000,9.25127685546875,-0.0095367431640625,0.871673583984375,0.3394775390625
1701290505299351800,9.261351806640626,-0.0262908935546875,0.8782196044921875,0.3176422119140625
1701290505309428000,9.271427978515625,-0.03826904296875,0.88311767578125,0.2867889404296875
1701290505319502800,9.2815029296875,-0.051177978515625,0.889984130859375,0.251617431640625
1701290505329578000,9.291577880859375,-0.070709228515625,0.8917083740234375,0.224273681640625
1701290505339654000,9.30165380859375,-0.0960540771484375,0.8878021240234375,0.2039794921875
1701290505349729000,9.31172900390625,-0.11810302734375,0.8853607177734375,0.187896728515625
1701290505359804000,9.321803955078124,-0.141448974609375,0.89508056640625,0.181732177734375
1701290505369880000,9.331880126953125,-0.1698760986328125,0.9108734130859375,0.186981201171875
1701290505379955000,9.341954833984374,-0.1963348388671875,0.92138671875,0.20361328125
1701290505390029800,9.35202978515625,-0.202362060546875,0.9319305419921875,0.220733642578125
1701290505400106000,9.36210595703125,-0.202239990234375,0.9486541748046875,0.228729248046875
1701290505410181000,9.37218115234375,-0.2016448974609375,0.9623260498046875,0.239501953125
1701290505420256000,9.382256103515624,-0.1999969482421875,0.96417236328125,0.2603759765625
1701290505430332000,9.392331787109375,-0.195404052734375,0.9506988525390625,0.274993896484375
1701290505440407000,9.402406982421875,-0.187164306640625,0.9353790283203125,0.281890869140625
1701290505450482000,9.41248193359375,-0.176116943359375,0.9226837158203125,0.28533935546875
1701290505460557800,9.422557861328125,-0.163238525390625,0.9116668701171875,0.29010009765625
1701290505470633000,9.432633056640626,-0.15203857421875,0.898284912109375,0.2982940673828125
1701290505480707800,9.442707763671875,-0.1432952880859375,0.8845672607421875,0.3066558837890625
1701290505490784000,9.452783935546876,-0.1436309814453125,0.869598388671875,0.3103485107421875
1701290505500859100,9.462859130859375,-0.1381378173828125,0.845550537109375,0.3125457763671875
1701290505510933800,9.472933837890626,-0.12762451171875,0.8244781494140625,0.3144378662109375
1701290505521010000,9.483010009765625,-0.1209259033203125,0.814361572265625,0.3176116943359375
1701290505531085000,9.4930849609375,-0.1133270263671875,0.8198394775390625,0.333526611328125
1701290505541160000,9.503159912109375,-0.11883544921875,0.835479736328125,0.3563079833984375
1701290505551235800,9.51323583984375,-0.1353912353515625,0.841522216796875,0.38397216796875
1701290505561311000,9.52331103515625,-0.159881591796875,0.8382110595703125,0.4129486083984375
1701290505571385900,9.5333857421875,-0.1777801513671875,0.8332977294921875,0.42584228515625
1701290505581462000,9.5434619140625,-0.185516357421875,0.826934814453125,0.4292449951171875
1701290505591537000,9.553536865234374,-0.1841888427734375,0.8287506103515625,0.4181671142578125
1701290505601611800,9.56361181640625,-0.172882080078125,0.8473663330078125,0.3905487060546875
1701290505611688000,9.57368798828125,-0.154998779296875,0.865509033203125,0.36187744140625
1701290505621763000,9.58376318359375,-0.1391754150390625,0.877105712890625,0.34039306640625
1701290505631838000,9.593837890625,-0.1348419189453125,0.8897247314453125,0.3149871826171875
1701290505641913900,9.603913818359375,-0.1543121337890625,0.8997039794921875,0.291839599609375
1701290505651989000,9.613989013671874,-0.1925201416015625,0.9048614501953125,0.2728118896484375
1701290505662065200,9.624065185546876,-0.2316131591796875,0.895538330078125,0.2537384033203125
1701290505672139800,9.634139892578125,-0.2480010986328125,0.8790283203125,0.2495880126953125
1701290505682215000,9.64421484375,-0.2445831298828125,0.852569580078125,0.257781982421875
1701290505692289800,9.654289794921874,-0.2305145263671875,0.8255615234375,0.2650909423828125
1701290505702366000,9.664365966796876,-0.21771240234375,0.8155517578125,0.281585693359375
1701290505712441000,9.674441162109375,-0.2148590087890625,0.8280029296875,0.29595947265625
1701290505722516000,9.684515869140625,-0.20147705078125,0.8427886962890625,0.3009796142578125
1701290505732591900,9.694591796875,-0.1767730712890625,0.8362884521484375,0.291748046875
1701290505742667000,9.7046669921875,-0.15118408203125,0.8251800537109375,0.2688751220703125
1701290505752742100,9.7147421875,-0.0967864990234375,0.91680908203125,0.2240753173828125
1701290505762817800,9.72481787109375,-0.0164031982421875,1.1085052490234375,0.1791534423828125
1701290505772893000,9.734892822265625,0.0161895751953125,1.2358551025390625,0.1325225830078125
1701290505782969000,9.744968994140624,-0.02294921875,1.1856536865234375,0.0841064453125
1701290505793044000,9.7550439453125,-0.03912353515625,1.013153076171875,0.065704345703125
1701290505803118800,9.765118896484376,0.0063629150390625,0.961700439453125,0.116424560546875
1701290505813195000,9.775195068359375,-0.019775390625,1.1131439208984375,0.207427978515625
1701290505823270000,9.785269775390624,-0.209259033203125,1.2700347900390625,0.333892822265625
1701290505833345000,9.795344970703125,-0.4637451171875,1.356201171875,0.484832763671875
1701290505843421000,9.8054208984375,-0.532196044921875,1.340728759765625,0.6100921630859375
1701290505853495800,9.815495849609375,-0.411163330078125,1.2263946533203125,0.635986328125
1701290505863571000,9.825571044921874,-0.348602294921875,1.0608978271484375,0.589813232421875
1701290505873646800,9.835646728515625,-0.31201171875,0.9122467041015625,0.49969482421875
1701290505883721700,9.8457216796875,-0.223419189453125,0.8192596435546875,0.3824462890625
1701290505893796900,9.855796875,-0.1338043212890625,0.7872314453125,0.2872772216796875
1701290505903873000,9.865873046875,-0.0629119873046875,0.8095245361328125,0.217071533203125
1701290505913948200,9.8759482421875,0.0125274658203125,0.8644256591796875,0.176605224609375
1701290505924023000,9.88602294921875,0.1121063232421875,0.9184417724609375,0.1719970703125
1701290505934099700,9.896099609375,0.2270660400390625,0.9422607421875,0.174530029296875
1701290505944174800,9.9061748046875,0.315948486328125,0.9538116455078125,0.1866455078125
1701290505954249700,9.916249755859376,0.3448944091796875,0.9574737548828125,0.2071380615234375
1701290505964325600,9.92632568359375,0.3099517822265625,0.9411163330078125,0.22760009765625
1701290505974400800,9.93640087890625,0.2170867919921875,0.90667724609375,0.2692718505859375
1701290505984475600,9.9464755859375,0.0712432861328125,0.8831939697265625,0.3647003173828125
1701290505994551600,9.956551513671876,-0.1013641357421875,0.885345458984375,0.4669189453125
1701290506004626700,9.966626708984375,-0.1895751953125,0.8946075439453125,0.5518798828125
1701290506014701600,9.97670166015625,-0.1356658935546875,0.9029541015625,0.5687408447265625
1701290506024777700,9.98677783203125,-0.0452117919921875,0.9229736328125,0.49859619140625
1701290506034852900,9.996852783203124,0.0020294189453125,0.961517333984375,0.3724822998046875
1701290506044927500,10.006927490234375,0.0207366943359375,1.00054931640625,0.242950439453125
1701290506055003600,10.017003662109374,0.0352325439453125,1.02069091796875,0.1243896484375
1701290506065078800,10.027078857421875,0.05181884765625,1.0240631103515625,0.037139892578125
1701290506075153700,10.037153564453124,0.0764923095703125,1.0116424560546875,-0.011199951171875
1701290506085229600,10.0472294921875,0.0797119140625,1.007171630859375,-0.0081634521484375
1701290506095304700,10.0573046875,0.0676422119140625,1.01885986328125,0.034576416015625
1701290506105379600,10.067379638671875,0.0455169677734375,1.0364990234375,0.070159912109375
1701290506115455700,10.077455810546875,0.01251220703125,1.057464599609375,0.097686767578125
1701290506125530600,10.087530517578125,-0.000244140625,1.0652008056640625,0.1634063720703125
1701290506135605800,10.097605712890624,0.022552490234375,1.0460357666015625,0.2450103759765625
1701290506145681700,10.107681640625,0.0463104248046875,1.011627197265625,0.2864227294921875
1701290506155756800,10.1177568359375,0.06756591796875,0.9726715087890625,0.306304931640625
1701290506165831700,10.127831787109375,0.096405029296875,0.950408935546875,0.3248443603515625
1701290506175907600,10.137907470703125,0.1327056884765625,0.9419708251953125,0.34381103515625
1701290506185982700,10.147982666015626,0.149749755859375,0.932373046875,0.3465728759765625
1701290506196057900,10.158057861328125,0.14801025390625,0.9229888916015625,0.3413848876953125
1701290506206133500,10.168133544921876,0.131500244140625,0.9129486083984375,0.3309326171875
1701290506216208600,10.178208740234375,0.113616943359375,0.9041290283203125,0.3146209716796875
1701290506226283800,10.18828369140625,0.101806640625,0.888763427734375,0.285797119140625
1701290506236359700,10.198359619140625,0.1027679443359375,0.8772735595703125,0.2591094970703125
1701290506246434800,10.208434814453126,0.1164703369140625,0.8869171142578125,0.2430419921875
1701290506256509700,10.218509765625,0.138458251953125,0.9160308837890625,0.232940673828125
1701290506266585600,10.228585693359374,0.152191162109375,0.93621826171875,0.2191009521484375
1701290506276660700,10.23866064453125,0.1601715087890625,0.94195556640625,0.2067108154296875
1701290506286736000,10.24873583984375,0.1646881103515625,0.94635009765625,0.196441650390625
1701290506296811500,10.2588115234375,0.1689300537109375,0.95220947265625,0.1884613037109375
1701290506306886700,10.26888671875,0.1627655029296875,0.961761474609375,0.1845550537109375
1701290506316961800,10.2789619140625,0.147705078125,0.9673004150390625,0.1793365478515625
1701290506327037700,10.28903759765625,0.12213134765625,0.96624755859375,0.1724090576171875
1701290506337112600,10.299112548828125,0.0959625244140625,0.9636077880859375,0.1692657470703125
1701290506347187700,10.309187744140624,0.0763702392578125,0.963409423828125,0.16259765625
1701290506357264000,10.319263916015625,0.0761260986328125,0.9615478515625,0.1607666015625
1701290506367338800,10.3293388671875,0.09033203125,0.9628143310546875,0.167572021484375
1701290506377413600,10.33941357421875,0.1118621826171875,0.9684600830078125,0.1891021728515625
1701290506387489800,10.34948974609375,0.1281890869140625,0.97198486328125,0.2204742431640625
1701290506397564700,10.359564697265625,0.1401519775390625,0.96807861328125,0.2484893798828125
1701290506407639800,10.369639892578125,0.1505279541015625,0.9625244140625,0.27081298828125
1701290506417715700,10.3797158203125,0.1622161865234375,0.957275390625,0.284912109375
1701290506427790600,10.38979052734375,0.165679931640625,0.9470062255859375,0.2851409912109375
1701290506437865700,10.39986572265625,0.154083251953125,0.93505859375,0.278350830078125
1701290506447942000,10.40994189453125,0.129364013671875,0.9302215576171875,0.267333984375
1701290506458016500,10.4200166015625,0.104583740234375,0.9290008544921875,0.2475128173828125
1701290506468092700,10.4300927734375,0.0920867919921875,0.93280029296875,0.224609375
1701290506478167800,10.440167724609376,0.09954833984375,0.9469757080078125,0.2116241455078125
1701290506488242700,10.45024267578125,0.1262664794921875,0.9604034423828125,0.2031707763671875
1701290506498318600,10.460318603515624,0.154205322265625,0.96527099609375,0.20977783203125
1701290506508393700,10.470393798828125,0.1747894287109375,0.9629364013671875,0.2285308837890625
1701290506518468600,10.480468505859376,0.1898651123046875,0.95562744140625,0.2547149658203125
1701290506528544800,10.490544677734375,0.2046661376953125,0.9409332275390625,0.2686920166015625
1701290506538619600,10.50061962890625,0.2186431884765625,0.9369354248046875,0.273193359375
1701290506548694500,10.510694580078125,0.2203826904296875,0.941192626953125,0.26922607421875
1701290506558770700,10.520770751953124,0.2050628662109375,0.950958251953125,0.260833740234375
1701290506568845800,10.530845703125,0.1836700439453125,0.9666900634765625,0.2493743896484375
1701290506578920700,10.540920654296874,0.1554718017578125,0.9819488525390625,0.231536865234375
1701290506588996600,10.55099658203125,0.12506103515625,0.98944091796875,0.20556640625
1701290506599071700,10.56107177734375,0.1019134521484375,0.990966796875,0.179046630859375
1701290506609146600,10.571146728515625,0.0921173095703125,0.9888916015625,0.1619415283203125
1701290506619222500,10.581222412109375,0.0929718017578125,0.9900054931640625,0.1492919921875
1701290506629297700,10.591297607421875,0.0919952392578125,0.989410400390625,0.1476287841796875
1701290506639372500,10.60137255859375,0.085723876953125,0.993255615234375,0.168914794921875
1701290506649448700,10.61144873046875,0.0771331787109375,0.993896484375,0.2078704833984375
1701290506659523800,10.62152392578125,0.079437255859375,0.97271728515625,0.249359130859375
1701290506669598500,10.631598388671875,0.101593017578125,0.9740753173828125,0.3170623779296875
1701290506679674600,10.641674560546875,0.133514404296875,1.027191162109375,0.3940582275390625
1701290506689749800,10.651749755859376,0.1523284912109375,1.07196044921875,0.4394378662109375
1701290506699825000,10.661824951171875,0.1547088623046875,1.0758819580078125,0.43878173828125
1701290506709900500,10.671900634765626,0.1544342041015625,1.055938720703125,0.4217529296875
1701290506719975700,10.6819755859375,0.1551971435546875,1.0648956298828125,0.4215850830078125
1701290506730050800,10.69205078125,0.163299560546875,1.1066741943359375,0.426544189453125
1701290506740126700,10.702126708984375,0.168182373046875,1.16400146484375,0.42059326171875
1701290506750201600,10.71220166015625,0.1650238037109375,1.21685791015625,0.4058074951171875
1701290506760276700,10.72227685546875,0.1382598876953125,1.241912841796875,0.3833465576171875
1701290506770352600,10.7323525390625,0.0721893310546875,1.2415924072265625,0.35418701171875
1701290506780427800,10.742427734375,-0.023590087890625,1.2198486328125,0.3294525146484375
1701290506790503000,10.7525029296875,-0.1217803955078125,1.1810760498046875,0.298919677734375
1701290506800578600,10.76257861328125,-0.1677398681640625,1.1230316162109375,0.259918212890625
1701290506810653700,10.77265380859375,-0.1581878662109375,1.0612945556640625,0.2188262939453125
1701290506820728800,10.782728759765625,-0.1322479248046875,1.009857177734375,0.1923828125
1701290506830804500,10.792804443359374,-0.122589111328125,0.9746856689453125,0.1729278564453125
1701290506840879600,10.802879638671875,-0.1331634521484375,0.9582977294921875,0.1693267822265625
1701290506850954800,10.812954833984374,-0.1357421875,0.9466705322265625,0.17706298828125
1701290506861030700,10.82303076171875,-0.099853515625,0.9221038818359375,0.1947174072265625
1701290506871105800,10.833105712890625,-0.0131988525390625,0.898956298828125,0.2266082763671875
1701290506881180700,10.8431806640625,0.0810394287109375,0.8869476318359375,0.2735595703125
1701290506891256800,10.8532568359375,0.1342315673828125,0.876373291015625,0.306060791015625
1701290506901331700,10.863331787109376,0.1454010009765625,0.8831329345703125,0.32403564453125
1701290506911406800,10.87340673828125,0.1455230712890625,0.898406982421875,0.3285675048828125
1701290506921482800,10.883482666015626,0.1599578857421875,0.9306640625,0.307952880859375
1701290506931557600,10.8935576171875,0.1678924560546875,0.978729248046875,0.2631683349609375
1701290506941631000,10.903630859375,0.159027099609375,1.0212249755859375,0.204132080078125
1701290506951707100,10.91370703125,0.1405487060546875,1.06024169921875,0.149078369140625
1701290506961782300,10.9237822265625,0.126678466796875,1.0966644287109375,0.124847412109375
1701290506971858000,10.93385791015625,0.10400390625,1.1129608154296875,0.117889404296875
1701290506981933000,10.94393310546875,0.0697479248046875,1.0924835205078125,0.11798095703125
1701290506992008200,10.95400830078125,0.0367279052734375,1.04571533203125,0.1285552978515625
1701290507002084000,10.964083984375,0.019622802734375,0.995025634765625,0.1646728515625
1701290507012159200,10.9741591796875,0.0181732177734375,0.958892822265625,0.206024169921875
1701290507022234000,10.984234130859376,0.02374267578125,0.944427490234375,0.2559051513671875
1701290507032310000,10.99431005859375,0.0302581787109375,0.935882568359375,0.294342041015625
1701290507042385200,11.00438525390625,0.0278472900390625,0.926666259765625,0.326995849609375
1701290507052460300,11.014460205078125,0.02825927734375,0.9151611328125,0.3600616455078125
1701290507062536000,11.024535888671876,0.02435302734375,0.908050537109375,0.3867645263671875
1701290507072611000,11.034611083984375,0.0205841064453125,0.9070587158203125,0.3929595947265625
1701290507082686200,11.044686279296876,0.01190185546875,0.9031982421875,0.3684539794921875
1701290507092762000,11.05476220703125,0.00042724609375,0.8967437744140625,0.3135223388671875
1701290507102837000,11.0648369140625,-0.01177978515625,0.8907318115234375,0.24755859375
1701290507112912100,11.074912109375,-0.031951904296875,0.8897705078125,0.181976318359375
1701290507122988300,11.08498828125,-0.052001953125,0.8959503173828125,0.12078857421875
1701290507133063200,11.095063232421875,-0.0654296875,0.8987274169921875,0.075592041015625
1701290507143138000,11.105137939453124,-0.0825653076171875,0.8970489501953125,0.04473876953125
1701290507153214200,11.115214111328125,-0.1005096435546875,0.8889617919921875,0.030242919921875
1701290507163289000,11.1252890625,-0.1189727783203125,0.8854827880859375,0.0387725830078125
1701290507173364200,11.1353642578125,-0.1374664306640625,0.8887176513671875,0.0631561279296875
1701290507183440100,11.145440185546875,-0.1523590087890625,0.891387939453125,0.09515380859375
1701290507193515000,11.155514892578125,-0.16455078125,0.884796142578125,0.1390380859375
1701290507203590100,11.165590087890624,-0.1695098876953125,0.8786163330078125,0.1776275634765625
1701290507213666300,11.175666259765626,-0.167327880859375,0.89019775390625,0.204071044921875
1701290507223741000,11.185740966796875,-0.167327880859375,0.9063720703125,0.2105560302734375
1701290507233816000,11.195816162109375,-0.1724090576171875,0.917144775390625,0.20635986328125
1701290507243892200,11.205892333984375,-0.17742919921875,0.92425537109375,0.2008056640625
1701290507253967000,11.215967041015626,-0.1812591552734375,0.9160308837890625,0.2004547119140625
1701290507264042200,11.226042236328125,-0.1754608154296875,0.8934478759765625,0.2030029296875
1701290507274118100,11.2361181640625,-0.16705322265625,0.8727569580078125,0.20672607421875
1701290507284193000,11.246193115234375,-0.155792236328125,0.866912841796875,0.2156829833984375
1701290507294268200,11.25626806640625,-0.1526641845703125,0.864288330078125,0.234771728515625
1701290507304344000,11.266343994140625,-0.161834716796875,0.8546142578125,0.2673492431640625
1701290507314419000,11.2764189453125,-0.1675567626953125,0.843109130859375,0.3047637939453125
1701290507324494000,11.286494140625,-0.1730499267578125,0.84039306640625,0.347564697265625
1701290507334570200,11.2965703125,-0.1715087890625,0.8496246337890625,0.3895111083984375
1701290507344645000,11.30664501953125,-0.1601715087890625,0.8765869140625,0.4287261962890625
1701290507354720000,11.316719970703126,-0.1505126953125,0.9017791748046875,0.477325439453125
1701290507364796200,11.326796142578125,-0.162200927734375,0.90576171875,0.5400848388671875
1701290507374871000,11.33687109375,-0.1917266845703125,0.8790283203125,0.620269775390625
1701290507384947000,11.346947021484375,-0.2275390625,0.845703125,0.688934326171875
1701290507395022000,11.35702197265625,-0.244049072265625,0.8328704833984375,0.7401885986328125
1701290507405097000,11.367096923828125,-0.2529754638671875,0.8403778076171875,0.744537353515625
1701290507415173000,11.377173095703125,-0.25872802734375,0.8631134033203125,0.6968841552734375
1701290507425248300,11.387248291015625,-0.2794189453125,0.9126129150390625,0.6023101806640625
1701290507435323000,11.397322998046874,-0.2798004150390625,0.965362548828125,0.484222412109375
1701290507445399000,11.40739892578125,-0.2431182861328125,0.958526611328125,0.3780670166015625
1701290507455474200,11.41747412109375,-0.207366943359375,0.8498687744140625,0.2906646728515625
1701290507465549000,11.427549072265625,-0.1655731201171875,0.726593017578125,0.2129974365234375
1701290507475625000,11.437625,-0.1380615234375,0.6711273193359375,0.154541015625
1701290507485700000,11.4477001953125,-0.1454010009765625,0.731719970703125,0.1281280517578125
1701290507495775200,11.457775146484375,-0.12774658203125,0.9075164794921875,0.1258392333984375
1701290507505851100,11.46785107421875,-0.0980377197265625,1.06793212890625,0.1249542236328125
1701290507515926000,11.477926025390625,-0.1016387939453125,1.11676025390625,0.0986175537109375
1701290507526001200,11.488001220703126,-0.111114501953125,1.048583984375,0.059814453125
1701290507536077000,11.4980771484375,-0.0587615966796875,0.9950714111328125,0.0601959228515625
1701290507546152200,11.508152099609376,-0.017791748046875,1.0769500732421875,0.1082305908203125
1701290507556227300,11.518227294921875,-0.0925445556640625,1.20660400390625,0.1782684326171875
1701290507566303000,11.528302978515624,-0.25836181640625,1.3058624267578125,0.2807464599609375
1701290507576378000,11.538378173828125,-0.3524932861328125,1.3401336669921875,0.405029296875
1701290507586453200,11.548453369140624,-0.2957916259765625,1.29522705078125,0.4910888671875
1701290507596529000,11.55852880859375,-0.24493408203125,1.18780517578125,0.5155181884765625
1701290507606604000,11.56860400390625,-0.24615478515625,1.042877197265625,0.514404296875
1701290507616679200,11.57867919921875,-0.2218170166015625,0.914306640625,0.48297119140625
1701290507626755000,11.588755126953124,-0.14593505859375,0.8385772705078125,0.4173736572265625
1701290507636830200,11.598830322265625,-0.059906005859375,0.8083038330078125,0.35601806640625
1701290507646905000,11.608905029296874,0.013763427734375,0.8063812255859375,0.2971954345703125
1701290507656981000,11.61898095703125,0.1135101318359375,0.832305908203125,0.235748291015625
1701290507667056000,11.62905615234375,0.22265625,0.8779449462890625,0.1849517822265625
1701290507677131300,11.63913134765625,0.2767333984375,0.9073638916015625,0.15631103515625
1701290507687207200,11.649207275390625,0.266448974609375,0.9010772705078125,0.145294189453125
1701290507697282000,11.659281982421875,0.2129364013671875,0.8841094970703125,0.155670166015625
1701290507707357200,11.669357177734375,0.136688232421875,0.8665008544921875,0.20281982421875
1701290507717433000,11.67943310546875,0.0261077880859375,0.8661651611328125,0.3185882568359375
1701290507727508000,11.689508056640625,-0.1108245849609375,0.8926849365234375,0.450408935546875
1701290507737583000,11.6995830078125,-0.23431396484375,0.9335174560546875,0.5661163330078125
1701290507747659300,11.7096591796875,-0.2521514892578125,0.97705078125,0.62921142578125
1701290507757734100,11.719734130859376,-0.168701171875,0.9946441650390625,0.6022491455078125
1701290507767809300,11.729809326171875,-0.063720703125,0.9913177490234375,0.4886474609375
1701290507777885200,11.73988525390625,0.0178680419921875,0.983795166015625,0.3229827880859375
1701290507787960000,11.7499599609375,0.0747528076171875,1.0059356689453125,0.1824493408203125
1701290507798036200,11.7600361328125,0.1015167236328125,1.043243408203125,0.0839691162109375
1701290507808111000,11.770111083984375,0.11834716796875,1.073150634765625,0.0106658935546875
1701290507818186000,11.78018603515625,0.101898193359375,1.084259033203125,-0.0282440185546875
1701290507828262100,11.79026220703125,0.050933837890625,1.0665130615234375,-0.010955810546875
1701290507838337300,11.800337158203124,0.00323486328125,1.0369415283203125,0.0300445556640625
1701290507848412200,11.810412109375,-0.0078582763671875,0.999664306640625,0.0688018798828125
1701290507858488000,11.820488037109374,0.021759033203125,0.971435546875,0.196929931640625
1701290507868563200,11.830563232421875,0.0775909423828125,0.95428466796875,0.326324462890625
1701290507878638000,11.84063818359375,0.1309356689453125,0.937042236328125,0.3891448974609375
1701290507888714000,11.8507138671875,0.1826629638671875,0.9172210693359375,0.4116058349609375
1701290507898789000,11.8607890625,0.2147674560546875,0.894195556640625,0.4043426513671875
1701290507908864000,11.870864013671875,0.2157440185546875,0.8753509521484375,0.38568115234375
1701290507918940200,11.880940185546875,0.1998443603515625,0.867095947265625,0.35546875
1701290507929015000,11.89101513671875,0.1829986572265625,0.8631439208984375,0.3116912841796875
1701290507939090200,11.901090087890625,0.1524200439453125,0.8683013916015625,0.2580108642578125
1701290507949166300,11.911166259765626,0.1082916259765625,0.9041290283203125,0.2188873291015625
1701290507959241200,11.9212412109375,0.052947998046875,0.963897705078125,0.197265625
1701290507969316400,11.93131640625,-0.0045166015625,0.99481201171875,0.1640167236328125
1701290507979392300,11.941392333984375,-0.022064208984375,0.985626220703125,0.1309967041015625
1701290507989467100,11.951467041015626,0.0090789794921875,0.9660491943359375,0.13201904296875
1701290507999542300,11.961542236328125,0.0642547607421875,0.955841064453125,0.1641387939453125
1701290508009618200,11.9716181640625,0.10064697265625,0.954254150390625,0.207122802734375
1701290508019693000,11.981693115234375,0.1182098388671875,0.9580535888671875,0.241485595703125
1701290508029768200,11.991768310546876,0.1392822265625,0.960235595703125,0.2650604248046875
1701290508039844400,12.00184423828125,0.1643829345703125,0.9645233154296875,0.2849578857421875
1701290508049919200,12.011919189453126,0.177703857421875,0.97393798828125,0.2976837158203125
1701290508059994000,12.021994140625,0.178802490234375,0.9840545654296875,0.29736328125
1701290508070070300,12.0320703125,0.1578521728515625,0.98468017578125,0.2876434326171875
1701290508080145200,12.042145263671875,0.1245880126953125,0.966033935546875,0.2696075439453125
1701290508090220300,12.05222021484375,0.0972137451171875,0.9389801025390625,0.2530517578125
1701290508100296200,12.062296142578125,0.0893402099609375,0.9244232177734375,0.2526092529296875
1701290508110371300,12.072371337890624,0.1005401611328125,0.9280853271484375,0.2570648193359375
1701290508120446200,12.0824462890625,0.11480712890625,0.9426727294921875,0.2579345703125
1701290508130522400,12.0925224609375,0.128448486328125,0.960357666015625,0.2512969970703125
1701290508140597200,12.10259716796875,0.1346588134765625,0.9683990478515625,0.2408294677734375
1701290508150673200,12.112673095703125,0.1373443603515625,0.9637908935546875,0.222442626953125
1701290508160748300,12.122748291015625,0.1378936767578125,0.95391845703125,0.2028656005859375
1701290508170823400,12.132823486328125,0.132354736328125,0.9389495849609375,0.1907806396484375
1701290508180899000,12.142899169921876,0.12664794921875,0.92584228515625,0.18353271484375
1701290508190974200,12.15297412109375,0.12176513671875,0.929840087890625,0.1872711181640625
1701290508201049300,12.16304931640625,0.124755859375,0.947998046875,0.1970977783203125
1701290508211125200,12.173125244140625,0.132293701171875,0.9756622314453125,0.210113525390625
1701290508221200100,12.1832001953125,0.1398162841796875,0.987640380859375,0.21197509765625
1701290508231275300,12.193275146484375,0.144073486328125,0.989166259765625,0.214141845703125
1701290508241351200,12.20335107421875,0.145660400390625,0.985748291015625,0.221893310546875
1701290508251426300,12.21342626953125,0.14208984375,0.9817657470703125,0.2226409912109375
1701290508261501400,12.22350146484375,0.1381988525390625,0.9738311767578125,0.2256927490234375
1701290508271577000,12.2335771484375,0.136627197265625,0.9608306884765625,0.2247467041015625
1701290508281652200,12.24365234375,0.13702392578125,0.958465576171875,0.2292022705078125
1701290508291727400,12.253727294921875,0.14202880859375,0.9673004150390625,0.242462158203125
1701290508301803300,12.26380322265625,0.146697998046875,0.9759521484375,0.2525787353515625
1701290508311878100,12.273878173828125,0.146392822265625,0.9807281494140625,0.256378173828125
1701290508321953300,12.283953369140624,0.144500732421875,0.983917236328125,0.266357421875
1701290508332029400,12.294029541015625,0.134063720703125,0.9823150634765625,0.2760009765625
1701290508342104300,12.304104248046874,0.115081787109375,0.9781951904296875,0.29345703125
1701290508352179200,12.31417919921875,0.0918731689453125,0.979644775390625,0.314056396484375
1701290508362255400,12.32425537109375,0.0668487548828125,0.9702301025390625,0.32977294921875
1701290508372330200,12.334330322265625,0.0520782470703125,0.971771240234375,0.3572540283203125
1701290508382405400,12.3444052734375,0.0661468505859375,1.0050506591796875,0.4011383056640625
1701290508392481300,12.354481201171875,0.089111328125,1.03656005859375,0.4322509765625
1701290508402556200,12.36455615234375,0.1017608642578125,1.0294342041015625,0.4386444091796875
1701290508412631300,12.37463134765625,0.107330322265625,0.9907989501953125,0.43365478515625
1701290508422707200,12.384707275390625,0.1106719970703125,0.9655303955078125,0.445831298828125
1701290508432782000,12.394781982421875,0.0969696044921875,0.9772186279296875,0.46099853515625
1701290508442857200,12.404857177734375,0.0718841552734375,1.0160064697265625,0.4670562744140625
1701290508452933400,12.414933349609376,0.0504913330078125,1.0762939453125,0.4731903076171875
1701290508463008300,12.42500830078125,0.0273895263671875,1.1239166259765625,0.4771575927734375
1701290508473083100,12.435083251953126,-0.005889892578125,1.1424407958984375,0.4608154296875
1701290508483159300,12.4451591796875,-0.0436859130859375,1.14727783203125,0.4389801025390625
1701290508493234200,12.455234130859376,-0.074859619140625,1.1400299072265625,0.421722412109375
1701290508503309300,12.465309326171875,-0.0980072021484375,1.1351165771484375,0.4038238525390625
1701290508513385200,12.47538525390625,-0.126495361328125,1.128326416015625,0.360443115234375
1701290508523460000,12.485460205078125,-0.1673583984375,1.0994415283203125,0.2934722900390625
1701290508533536300,12.495536376953124,-0.1961517333984375,1.052825927734375,0.2306060791015625
1701290508543611400,12.505611328125,-0.1929931640625,1.0286865234375,0.2025909423828125
1701290508553686000,12.51568603515625,-0.1653594970703125,1.0316162109375,0.2048187255859375
1701290508563762200,12.52576220703125,-0.131988525390625,1.022308349609375,0.2093963623046875
1701290508573837300,12.53583740234375,-0.0767059326171875,1.0001678466796875,0.2258453369140625
1701290508583912200,12.545912109375,-0.0045623779296875,0.9900054931640625,0.244171142578125
1701290508593988000,12.555988037109374,0.0576019287109375,0.9876251220703125,0.2533111572265625
1701290508604063200,12.566063232421875,0.1151275634765625,0.9920806884765625,0.2368316650390625
1701290508614138000,12.57613818359375,0.165252685546875,1.0057830810546875,0.2155609130859375
1701290508624214300,12.58621435546875,0.1809539794921875,1.0213775634765625,0.1876983642578125
1701290508634289200,12.5962890625,0.1685638427734375,1.030609130859375,0.148834228515625
1701290508644364000,12.606364013671875,0.1519622802734375,1.030517578125,0.1039886474609375
1701290508654440200,12.616440185546875,0.147430419921875,1.0220489501953125,0.074249267578125
1701290508664515300,12.626515380859376,0.152496337890625,1.02117919921875,0.076416015625
1701290508674590500,12.636590576171875,0.1463165283203125,1.0206298828125,0.1012420654296875
1701290508684666000,12.646666015625,0.102142333984375,1.020111083984375,0.1363372802734375
1701290508694741200,12.6567412109375,0.0238037109375,1.0247955322265625,0.1802520751953125
1701290508704816400,12.66681640625,-0.0306243896484375,1.0068206787109375,0.2158660888671875
1701290508714892000,12.67689208984375,-0.04388427734375,0.9733123779296875,0.25054931640625
1701290508724967200,12.68696728515625,-0.023956298828125,0.936798095703125,0.2957611083984375
1701290508735042300,12.697042236328125,0.0050201416015625,0.901153564453125,0.3338775634765625
1701290508745118200,12.7071181640625,0.0235443115234375,0.8742523193359375,0.3513946533203125
1701290508755193300,12.717193359375,0.03033447265625,0.85919189453125,0.35247802734375
1701290508765268200,12.727268310546876,0.029266357421875,0.8563385009765625,0.3485107421875
1701290508775344000,12.73734423828125,0.0244598388671875,0.862823486328125,0.3436279296875
1701290508785419300,12.747419189453124,0.0169219970703125,0.8735198974609375,0.3407440185546875
1701290508795494400,12.757494384765625,0.006744384765625,0.8775787353515625,0.336090087890625
1701290508805570000,12.767570068359374,-0.006591796875,0.8742523193359375,0.3249664306640625
1701290508815645200,12.777645263671875,-0.0314178466796875,0.875823974609375,0.3071441650390625
1701290508825720300,12.78772021484375,-0.065185546875,0.8798828125,0.2890167236328125
1701290508835796200,12.797796142578125,-0.0886688232421875,0.8914947509765625,0.266998291015625
1701290508845871000,12.80787109375,-0.106536865234375,0.9086456298828125,0.244781494140625
1701290508855947300,12.817947265625,-0.1210479736328125,0.9190521240234375,0.220062255859375
1701290508866022400,12.8280224609375,-0.1287689208984375,0.91668701171875,0.1909027099609375
1701290508876097300,12.83809716796875,-0.1331329345703125,0.9050140380859375,0.1664581298828125
1701290508886173200,12.848173095703125,-0.1393280029296875,0.893829345703125,0.1402435302734375
1701290508896248300,12.858248291015625,-0.1387176513671875,0.9007568359375,0.1176300048828125
1701290508906323200,12.8683232421875,-0.1394195556640625,0.9099273681640625,0.1027679443359375
1701290508916399400,12.8783994140625,-0.1358184814453125,0.9079132080078125,0.0989532470703125
1701290508926474200,12.88847412109375,-0.136688232421875,0.884979248046875,0.1059112548828125
1701290508936549000,12.898549072265626,-0.1431732177734375,0.86590576171875,0.122314453125
1701290508946625000,12.908625,-0.155517578125,0.86468505859375,0.1553497314453125
1701290508956700200,12.9187001953125,-0.163848876953125,0.87884521484375,0.193756103515625
1701290508966775300,12.928775390625,-0.1698760986328125,0.8932037353515625,0.2321929931640625
1701290508976851000,12.938850830078126,-0.1766357421875,0.8948211669921875,0.2792205810546875
1701290508986926000,12.948926025390625,-0.1779022216796875,0.8808441162109375,0.3257293701171875
1701290508997001200,12.959001220703126,-0.1749420166015625,0.856903076171875,0.364532470703125
1701290509007076900,12.969076904296875,-0.1743011474609375,0.83062744140625,0.386688232421875
1701290509017152000,12.979152099609376,-0.1700592041015625,0.8250579833984375,0.402099609375
1701290509027227100,12.98922705078125,-0.1613616943359375,0.8530731201171875,0.41815185546875
1701290509037303000,12.999302978515624,-0.168853759765625,0.8834686279296875,0.4369049072265625
1701290509047378200,13.009378173828125,-0.19366455078125,0.8853607177734375,0.4643707275390625
1701290509057453000,13.019453125,-0.214630126953125,0.85797119140625,0.4908599853515625
1701290509067529000,13.029529052734375,-0.22064208984375,0.8360443115234375,0.4952239990234375
1701290509077604000,13.03960400390625,-0.2092437744140625,0.827850341796875,0.4830474853515625
1701290509087679200,13.04967919921875,-0.1819610595703125,0.8278656005859375,0.4700775146484375
1701290509097755000,13.0597548828125,-0.142333984375,0.8271484375,0.4546661376953125
1701290509107830000,13.069830078125,-0.1065216064453125,0.8309173583984375,0.4367828369140625
1701290509117905200,13.0799052734375,-0.0991668701171875,0.846038818359375,0.4157867431640625
1701290509127981300,13.089981201171875,-0.126800537109375,0.8789825439453125,0.384124755859375
1701290509138056000,13.100055908203124,-0.16754150390625,0.8992919921875,0.3487396240234375
1701290509148131000,13.110131103515625,-0.2079925537109375,0.86480712890625,0.3358917236328125
1701290509158207200,13.120207275390625,-0.24127197265625,0.8137359619140625,0.3408966064453125
1701290509168282000,13.1302822265625,-0.2682342529296875,0.785003662109375,0.342132568359375
1701290509178358000,13.14035791015625,-0.30487060546875,0.7868194580078125,0.341583251953125
1701290509188433200,13.15043310546875,-0.3284454345703125,0.8110198974609375,0.3472900390625
1701290509198508000,13.160508056640625,-0.326080322265625,0.83221435546875,0.34942626953125
1701290509208584200,13.170584228515626,-0.289215087890625,0.881195068359375,0.3269500732421875
1701290509218659000,13.1806591796875,-0.2002410888671875,1.030242919921875,0.2875823974609375
