time,seconds_elapsed,z,y,x
1701290496051463200,0.013463134765625,-0.06270039826631546,-0.007865113206207752,-0.092445507645607
1701290496061539000,0.0235390625,-0.06285006552934647,0.05355643481016159,-0.08891948312520981
1701290496071614000,0.033614013671875,-0.0846637561917305,0.0998363122344017,-0.08027513325214386
1701290496081689000,0.043689208984375,-0.09635210037231445,0.11053290218114853,-0.08709042519330978
1701290496091765200,0.05376513671875,-0.1119299978017807,0.09725837409496307,-0.1270761936903
1701290496101840100,0.063840087890625,-0.12658031284809113,0.0775589719414711,-0.19151297211647034
1701290496111915000,0.0739150390625,-0.12803839147090912,0.03181838244199753,-0.22731198370456696
1701290496121991200,0.0839912109375,-0.14325276017189026,-0.00123783724848181,-0.2705606520175934
1701290496132066000,0.094066162109375,-0.09470067918300629,-0.13588006794452667,-0.2979006767272949
1701290496142141200,0.10414111328125,-0.0969635620713234,-0.22461020946502686,-0.25354304909706116
1701290496152217000,0.114217041015625,-0.13655199110507965,-0.10153674334287643,-0.21399883925914764
1701290496162292000,0.1242919921875,-0.15755154192447662,-0.04718722030520439,-0.23715928196907043
1701290496172367000,0.1343671875,-0.16228051483631134,-0.045937132090330124,-0.24094709753990173
1701290496182442000,0.14444189453125,-0.19600573182106018,-0.028684375807642937,-0.2152382731437683
1701290496192518000,0.154517822265625,-0.2674112021923065,0.014226606115698814,-0.1893928349018097
1701290496202593000,0.164593017578125,-0.33407944440841675,0.03461816534399986,-0.18427956104278564
1701290496212668200,0.174668212890625,-0.3684925436973572,-0.0016860472969710827,-0.21305954456329346
1701290496222744000,0.184744140625,-0.39041808247566223,-0.022649917751550674,-0.2590526044368744
1701290496232819200,0.194819091796875,-0.4028063118457794,0.010775416158139706,-0.30407360196113586
1701290496242894000,0.20489404296875,-0.42514917254447937,0.039322637021541595,-0.34650495648384094
1701290496252970000,0.214969970703125,-0.45706847310066223,0.06166709214448929,-0.40000706911087036
1701290496263045000,0.225045166015625,-0.5034093260765076,0.0670195147395134,-0.44731783866882324
1701290496273120300,0.235120361328125,-0.5809920430183411,0.1140698492527008,-0.5263628959655762
1701290496283196000,0.24519580078125,-0.7042862772941589,0.24239878356456757,-0.6690795421600342
1701290496293271000,0.25527099609375,-0.8546012043952942,0.3576233685016632,-0.7966316342353821
1701290496303346200,0.26534619140625,-0.9848273992538452,0.45738911628723145,-0.8121112585067749
1701290496313422000,0.275422119140625,-1.1137480735778809,0.4310302138328552,-0.7721744775772095
1701290496323497000,0.2854970703125,-1.1753650903701782,0.5051169395446777,-0.6777982115745544
1701290496333572000,0.295572021484375,-1.1274484395980835,0.6772975325584412,-0.4851355254650116
1701290496343647000,0.30564697265625,-1.0089492797851562,0.6695879101753235,-0.4057088792324066
1701290496353723100,0.31572314453125,-0.8943949341773987,0.6366928219795227,-0.46802711486816406
1701290496363798000,0.325798095703125,-0.8558797836303711,0.5961528420448303,-0.5706514716148376
1701290496373873000,0.335872802734375,-0.874646008014679,0.5394704341888428,-0.6438522338867188
1701290496383949000,0.345948974609375,-0.8923171758651733,0.49649205803871155,-0.6815380454063416
1701290496394024200,0.356024169921875,-0.9148206114768982,0.5095311403274536,-0.7308449149131775
1701290496404099000,0.36609912109375,-0.9427265524864197,0.4698553681373596,-0.8010548949241638
1701290496414175000,0.376175048828125,-0.9876409769058228,0.3990427255630493,-0.8953456878662109
1701290496424250000,0.38625,-1.0153110027313232,0.29272639751434326,-0.9248654842376709
1701290496434325000,0.396324951171875,-0.9929220676422119,0.18329578638076782,-0.8683010339736938
1701290496444401200,0.406401123046875,-0.9684656858444214,0.10777972638607025,-0.7353525757789612
1701290496454476000,0.41647607421875,-0.9878777861595154,0.09357442706823349,-0.5973947048187256
1701290496464551000,0.426551025390625,-1.0386136770248413,0.08203654736280441,-0.4942113161087036
1701290496474627000,0.436626953125,-1.120753288269043,0.10211677849292755,-0.4645721912384033
1701290496484702200,0.4467021484375,-1.4100394248962402,0.1880793571472168,-0.4312770962715149
1701290496494777000,0.456777099609375,-1.6213178634643555,0.44271644949913025,-0.35091114044189453
1701290496504852000,0.46685205078125,-1.5699489116668701,1.224339246749878,-0.12401169538497925
1701290496514928000,0.47692822265625,-1.2224599123001099,1.8626407384872437,-0.047568585723638535
1701290496525003000,0.4870029296875,-1.0546929836273193,2.085951805114746,-0.15504631400108337
1701290496535078100,0.497078125,-1.1232681274414062,1.8966313600540161,-0.2989659309387207
1701290496545154000,0.507154052734375,-1.2916749715805054,1.6011574268341064,-0.32410937547683716
1701290496555229200,0.517229248046875,-1.4596439599990845,1.234629511833191,-0.25657105445861816
1701290496565304000,0.527303955078125,-1.583475947380066,0.7361544370651245,-0.26018470525741577
1701290496575380000,0.5373798828125,-1.6211081743240356,0.1818198710680008,-0.33791306614875793
1701290496585455000,0.547455078125,-1.5028942823410034,-0.2796119451522827,-0.46769529581069946
1701290496595530000,0.557530029296875,-1.3894507884979248,-0.5726541876792908,-0.617842435836792
1701290496605606100,0.567606201171875,-1.313368558883667,-0.690681517124176,-0.7425178289413452
1701290496615681300,0.577681396484375,-1.1884931325912476,-0.6758620738983154,-0.7951557040214539
1701290496625756000,0.587755859375,-1.082047700881958,-0.6177968978881836,-0.7787583470344543
1701290496635832000,0.59783203125,-1.0672907829284668,-0.44237104058265686,-0.7329935431480408
1701290496645907200,0.6079072265625,-1.1099879741668701,-0.1913723647594452,-0.6806086301803589
1701290496655982000,0.617982177734375,-1.2216370105743408,-0.004564125556498766,-0.6275954842567444
1701290496666058000,0.62805810546875,-1.3983560800552368,0.013942980207502842,-0.5603528022766113
1701290496676133000,0.638133056640625,-1.6104209423065186,-0.06558726727962494,-0.46980956196784973
1701290496686208000,0.6482080078125,-1.8099879026412964,-0.27542492747306824,-0.40268674492836
1701290496696283100,0.658283203125,-1.9078164100646973,-0.5004766583442688,-0.3379010856151581
1701290496706359000,0.668359130859375,-1.9201220273971558,-0.7356604337692261,-0.25405463576316833
1701290496716434000,0.678433837890625,-1.80696702003479,-0.9149169921875,-0.09760751575231552
1701290496726509000,0.688509033203125,-1.6316410303115845,-0.9279702305793762,0.05154867842793465
1701290496736585200,0.698585205078125,-1.383105754852295,-0.772795557975769,0.17173074185848236
1701290496746660000,0.70866015625,-1.0793147087097168,-0.5012340545654297,0.256652295589447
1701290496756735000,0.71873486328125,-0.7728282809257507,-0.2687387764453888,0.3211146295070648
1701290496766811100,0.72881103515625,-0.5163301825523376,-0.16074654459953308,0.338318407535553
1701290496776886000,0.738885986328125,-0.29222041368484497,-0.12650787830352783,0.28344395756721497
1701290496786961200,0.748961181640625,-0.12963362038135529,-0.12174907326698303,0.15913212299346924
1701290496797037000,0.759037109375,-0.11195769160985947,0.06269373744726181,-0.13231702148914337
1701290496807112000,0.76911181640625,-0.2714376449584961,0.21922023594379425,-0.4399443566799164
1701290496817187000,0.77918701171875,-0.33794793486595154,0.021796641871333122,-0.5204312205314636
1701290496827263200,0.78926318359375,-0.23097702860832214,-0.3305281102657318,-0.4084825813770294
1701290496837337900,0.799337890625,-0.05770856887102127,-0.625385046005249,-0.2202008068561554
1701290496847413000,0.8094130859375,0.03901184722781181,-0.7146262526512146,-0.09508470445871353
1701290496857489200,0.8194892578125,-0.0018964370246976614,-0.6001569032669067,-0.08351380378007889
1701290496867564000,0.82956396484375,-0.08623448759317398,-0.40293654799461365,-0.16961166262626648
1701290496877639200,0.83963916015625,-0.13204112648963928,-0.30877700448036194,-0.28248095512390137
1701290496887715000,0.849715087890625,-0.1442892700433731,-0.3037857115268707,-0.3484245538711548
1701290496897790000,0.8597900390625,-0.1463574767112732,-0.32323744893074036,-0.330547034740448
1701290496907865000,0.869864990234375,-0.15973134338855743,-0.3221844434738159,-0.2359480857849121
1701290496917940200,0.879940185546875,-0.1783076822757721,-0.2986719012260437,-0.15442952513694763
1701290496928016100,0.89001611328125,-0.16533170640468597,-0.24985218048095703,-0.1518169641494751
1701290496938091300,0.90009130859375,-0.09885547310113907,-0.1930011510848999,-0.19602783024311066
1701290496948166100,0.910166259765625,-0.015441540628671646,-0.15177834033966064,-0.23257093131542206
1701290496958242300,0.9202421875,0.03750769421458244,-0.1687847524881363,-0.25504109263420105
1701290496968317200,0.930317138671875,0.07313866168260574,-0.21143367886543274,-0.25763314962387085
1701290496978392000,0.94039208984375,0.08104132115840912,-0.22466214001178741,-0.23903149366378784
1701290496988468200,0.95046826171875,0.08132441341876984,-0.18647614121437073,-0.22651197016239166
1701290496998543400,0.96054345703125,0.05470559000968933,-0.10315994173288345,-0.22204823791980743
1701290497008618200,0.9706181640625,-0.06437552720308304,-0.022976955398917198,-0.15748415887355804
1701290497018694100,0.980694091796875,-0.14575506746768951,-0.018254904076457024,-0.08500197529792786
1701290497028769300,0.990769287109375,-0.023179886862635612,-0.04874676838517189,-0.14082689583301544
1701290497038844200,1.00084423828125,0.0572771392762661,-0.05697513371706009,-0.25103116035461426
1701290497048920000,1.010920166015625,0.038357242941856384,-0.05439266934990883,-0.33366426825523376
1701290497058995200,1.0209951171875,-0.006097573786973953,-0.07129468768835068,-0.28641098737716675
1701290497069070000,1.031070068359375,-0.041673410683870316,-0.12531611323356628,-0.16193297505378723
1701290497079146200,1.041146240234375,-0.035952676087617874,-0.06778250634670258,-0.10813445597887039
1701290497089221000,1.05122119140625,-0.030356308445334435,0.023791082203388214,-0.13623666763305664
1701290497099296000,1.0612958984375,-0.029985861852765083,0.02695225551724434,-0.1482216864824295
1701290497109371100,1.07137109375,-0.030758976936340332,-0.011985289864242077,-0.14593589305877686
1701290497119447300,1.081447265625,-0.02694826014339924,-0.03941664844751358,-0.14189322292804718
1701290497129522200,1.091522216796875,-0.021624069660902023,-0.0593448169529438,-0.14049400389194489
1701290497139597000,1.10159716796875,-0.018867164850234985,-0.07019000500440598,-0.14115366339683533
1701290497149673200,1.111673095703125,-0.013043896295130253,-0.06557395309209824,-0.14992958307266235
1701290497159748000,1.121748046875,-0.00649704784154892,-0.0699298158288002,-0.15991003811359406
1701290497169823200,1.1318232421875,-0.005434979218989611,-0.09479335695505142,-0.16891604661941528
1701290497179899100,1.141899169921875,-0.0032349417451769114,-0.12809298932552338,-0.17359735071659088
1701290497189974300,1.151974365234375,-0.007203051820397377,-0.14545279741287231,-0.166901633143425
1701290497200049200,1.162049072265625,-0.023203322663903236,-0.14352573454380035,-0.15417598187923431
1701290497210125300,1.172125244140625,-0.03134753555059433,-0.14237605035305023,-0.14067882299423218
1701290497220200200,1.1822001953125,-0.03507223352789879,-0.14652526378631592,-0.12900139391422272
1701290497230275000,1.192275146484375,-0.030581345781683922,-0.15061694383621216,-0.12410996109247208
1701290497240351200,1.202351318359375,-0.02377217449247837,-0.15692757070064545,-0.12807540595531464
1701290497250426400,1.21242626953125,-0.02478231117129326,-0.1540798395872116,-0.13534530997276306
1701290497260501200,1.222501220703125,-0.03117549605667591,-0.14114540815353394,-0.14048254489898682
1701290497270577200,1.2325771484375,-0.03148362413048744,-0.14633138477802277,-0.13951528072357178
1701290497280652300,1.24265234375,-0.028536036610603333,-0.17479871213436127,-0.13162833452224731
1701290497290727200,1.25272705078125,-0.0252212006598711,-0.20007769763469696,-0.12789830565452576
1701290497300802300,1.26280224609375,-0.02051566168665886,-0.20540988445281982,-0.1309894472360611
1701290497310878200,1.272878173828125,-0.020542824640870094,-0.18877443671226501,-0.13743428885936737
1701290497320953000,1.282953125,-0.025082716718316078,-0.175456240773201,-0.13865694403648376
1701290497331028200,1.2930283203125,-0.029585855081677437,-0.17925603687763214,-0.12300768494606018
1701290497341104400,1.3031044921875,-0.03521577641367912,-0.1846177875995636,-0.11711250990629196
1701290497351179000,1.313178955078125,-0.043646812438964844,-0.18820080161094666,-0.11453163623809814
1701290497361254100,1.323254150390625,-0.045454032719135284,-0.19810377061367035,-0.1088646948337555
1701290497371330300,1.333330322265625,-0.047084953635931015,-0.20839954912662506,-0.10310694575309753
1701290497381405200,1.3434052734375,-0.045523807406425476,-0.20443889498710632,-0.10067228227853775
1701290497391480300,1.353480224609375,-0.043708864599466324,-0.18172399699687958,-0.10394370555877686
1701290497401556200,1.36355615234375,-0.03916098549962044,-0.15643221139907837,-0.10287072509527206
1701290497411631000,1.373631103515625,-0.03526664525270462,-0.14354278147220612,-0.09936840087175369
1701290497421706200,1.383706298828125,-0.037644580006599426,-0.13967028260231018,-0.09276029467582703
1701290497431782100,1.3937822265625,-0.03611566126346588,-0.14401815831661224,-0.08318623155355453
1701290497441857000,1.40385693359375,-0.04173785820603371,-0.14877429604530334,-0.07944902032613754
1701290497451932200,1.41393212890625,-0.0427786223590374,-0.1361626386642456,-0.06726718693971634
1701290497462007300,1.42400732421875,-0.04205610603094101,-0.11165568977594376,-0.052446164190769196
1701290497472083200,1.434083251953125,-0.035593412816524506,-0.07994090765714645,-0.044979460537433624
1701290497482158000,1.444157958984375,-0.031030619516968727,-0.057004429399967194,-0.041732799261808395
1701290497492233200,1.454233154296875,-0.033118005841970444,-0.03562111034989357,-0.04302256926894188
1701290497502309000,1.46430908203125,-0.03629861772060394,-0.03399418666958809,-0.04372377693653107
1701290497512384300,1.47438427734375,-0.031790684908628464,-0.05983137711882591,-0.04074956104159355
1701290497522459400,1.48445947265625,-0.02929823473095894,-0.06180664151906967,-0.035481829196214676
1701290497532535000,1.49453515625,-0.02208958938717842,-0.04591396078467369,-0.027761856094002724
1701290497542610200,1.504610107421875,-0.019059976562857628,-0.019897008314728737,-0.018509235233068466
1701290497552685300,1.514685302734375,-0.024169784039258957,0.015085475519299507,-0.014886537566781044
1701290497562761200,1.52476123046875,-0.025303492322564125,0.04349634423851967,-0.013027118518948555
1701290497572836000,1.534836181640625,-0.029618078842759132,0.057502176612615585,-0.007065632846206427
1701290497582911200,1.5449111328125,-0.03190333768725395,0.045154161751270294,0.0011787151452153921
1701290497592987400,1.5549873046875,-0.032882582396268845,0.03340962156653404,0.006318349856883287
1701290497603062300,1.565062255859375,-0.030780283734202385,0.04115169867873192,0.0002985403698403388
1701290497613137200,1.57513720703125,-0.027789819985628128,0.052142295986413956,-0.01631132885813713
1701290497623213300,1.58521337890625,-0.02052897773683071,0.0714278444647789,-0.024272317066788673
1701290497633288200,1.5952880859375,-0.013131780549883842,0.07694804668426514,-0.016331302002072334
1701290497643363300,1.60536328125,-0.0123056685552001,0.07398208230733871,-0.0022040321491658688
1701290497653438200,1.615438232421875,-0.014817561954259872,0.06262370198965073,0.0011835087789222598
1701290497663514000,1.62551416015625,-0.01560985203832388,0.05668431892991066,-0.0016623451374471188
1701290497673589200,1.63558935546875,-0.016401343047618866,0.056476060301065445,-0.003081809962168336
1701290497683664100,1.6456640625,-0.017886854708194733,0.0684317871928215,-0.002775546396151185
1701290497693740000,1.655739990234375,-0.017908958718180656,0.07648199051618576,0.003165699541568756
1701290497703815200,1.665815185546875,-0.013466806150972843,0.07076817750930786,0.010900052264332771
1701290497713890000,1.67589013671875,-0.007663778495043516,0.07179003208875656,0.01641678996384144
1701290497723966200,1.68596630859375,0.0022389194928109646,0.08196677267551422,0.02165709249675274
1701290497734041000,1.696041015625,0.004298341926187277,0.09172485768795013,0.018429340794682503
1701290497744116200,1.7061162109375,0.006113552488386631,0.10815922915935516,0.02232075110077858
1701290497754192100,1.716192138671875,0.005976399872452021,0.12724344432353973,0.018245050683617592
1701290497764267300,1.726267333984375,0.004567055031657219,0.12711986899375916,0.020808076485991478
1701290497774342400,1.73634228515625,0.007005977910012007,0.10482414811849594,0.030283870175480843
1701290497784418000,1.74641796875,0.006871222052723169,0.09918463975191116,0.036919668316841125
1701290497794493200,1.7564931640625,0.008046741597354412,0.10499805212020874,0.03717666491866112
1701290497804568300,1.766568359375,0.0068331388756632805,0.11631515622138977,0.03244449198246002
1701290497814643200,1.776643310546875,0.013277189806103706,0.1263321042060852,0.027842815965414047
1701290497824719000,1.786718994140625,0.01495071966201067,0.13303394615650177,0.020305005833506584
1701290497834794200,1.796794189453125,0.019424298778176308,0.1350417137145996,0.01930844970047474
1701290497844869000,1.806869140625,0.018727349117398262,0.13095615804195404,0.023371635004878044
1701290497854945300,1.8169453125,0.024984445422887802,0.12262791395187378,0.031022364273667336
1701290497865020200,1.827020263671875,0.019836554303765297,0.11904916167259216,0.03569488227367401
1701290497875095000,1.837094970703125,0.016623716801404953,0.11545708775520325,0.03965739905834198
1701290497885171200,1.847171142578125,0.01543701346963644,0.12423326820135117,0.03864007070660591
1701290497895246300,1.857246337890625,0.013067065738141537,0.11721956729888916,0.0432252362370491
1701290497905321200,1.8673212890625,0.014133661985397339,0.10031808167695999,0.04874250665307045
1701290497915397000,1.877397216796875,0.014856443740427494,0.09495900571346283,0.05441876873373985
1701290497925471000,1.887470947265625,0.01531610544770956,0.10133327543735504,0.05290129780769348
1701290497935545900,1.8975458984375,0.01751880533993244,0.10490457713603973,0.0458681546151638
1701290497945622000,1.9076220703125,0.016809873282909393,0.08760415017604828,0.033310819417238235
1701290497955697200,1.917697265625,0.017526263371109962,0.06777052581310272,0.023624369874596596
1701290497965772000,1.92777197265625,0.013545636087656021,0.055627044290304184,0.021621139720082283
1701290497975848000,1.937847900390625,0.015572568401694298,0.04014209285378456,0.02225790172815323
1701290497985923000,1.947923095703125,0.013487312942743301,0.026571689173579216,0.01914226822555065
1701290497995998000,1.957998046875,0.013464942574501038,0.026065422222018242,0.02184164896607399
1701290498006073000,1.968072998046875,0.013100089505314827,0.03807254880666733,0.015478558838367462
1701290498016149000,1.97814892578125,0.009052883833646774,0.028675319626927376,0.0015169365797191858
1701290498026223900,1.988223876953125,0.006502374075353146,-0.0016144082183018327,-0.008757006376981735
1701290498036299000,1.998299072265625,0.00333241350017488,-0.03855351731181145,-0.008166316896677017
1701290498046375000,2.008375,0.00025779398856684566,-0.05957358330488205,-0.013231117278337479
1701290498056449800,2.01844970703125,-0.0037462685722857714,-0.061595454812049866,-0.01655767112970352
1701290498066525000,2.02852490234375,-0.004236290231347084,-0.058158110827207565,-0.01601252146065235
1701290498076601000,2.03860107421875,0.0008559399866499007,-0.05564355477690697,-0.013395966030657291
1701290498086676000,2.048676025390625,0.0037734329234808683,-0.05047276243567467,-0.00788668543100357
1701290498096750800,2.058750732421875,0.009601227939128876,-0.04350433498620987,-0.016751017421483994
1701290498106827000,2.068826904296875,0.012832175008952618,-0.04123612120747566,-0.023850204423069954
1701290498116902000,2.07890185546875,0.010952250100672245,-0.055037952959537506,-0.02225683629512787
1701290498126977000,2.08897705078125,0.002847185591235757,-0.06410441547632217,-0.018383534625172615
1701290498137053000,2.099052978515625,0.005271727219223976,-0.05113029479980469,-0.009438509121537209
1701290498147127800,2.1091279296875,0.007281881291419268,-0.02912645973265171,0.0013904364313930273
1701290498157203000,2.119202880859375,0.016102537512779236,-0.014155765995383263,0.00806325301527977
1701290498167278000,2.129278076171875,0.013191169127821922,0.009889381937682629,0.008985239081084728
1701290498177354000,2.13935400390625,0.014162424020469189,0.015860987827181816,0.004462925251573324
1701290498187428900,2.149428955078125,0.01329689659178257,0.002409095410257578,0.0015773903578519821
1701290498197504000,2.15950390625,0.008333563804626465,0.0012905678013339639,0.004884503781795502
1701290498207580200,2.169580078125,0.0046354979276657104,0.014750982634723186,0.015045528300106525
1701290498217655000,2.179655029296875,0.003896470880135894,0.03464293107390404,0.029334718361496925
1701290498227730000,2.18972998046875,0.008292284794151783,0.05366402864456177,0.033422671258449554
1701290498237806000,2.19980615234375,0.01050643716007471,0.07367182523012161,0.022493058815598488
1701290498247881000,2.209880859375,0.010627077892422676,0.07359432429075241,0.01218769047409296
1701290498257956000,2.2199560546875,0.008554872125387192,0.0627446100115776,0.010161557234823704
1701290498268032000,2.230031982421875,0.0010732539230957627,0.050510846078395844,0.009494701400399208
1701290498278107000,2.24010693359375,-0.0009323726990260184,0.05131511762738228,0.020111659541726112
1701290498288182000,2.25018212890625,0.0006807039608247578,0.06436167657375336,0.03165486454963684
1701290498298258200,2.260258056640625,0.005447762086987495,0.08454364538192749,0.030774157494306564
1701290498308332800,2.270332763671875,0.013680391944944859,0.09747488796710968,0.02690165489912033
1701290498318408000,2.280407958984375,0.016088955104351044,0.09215869009494781,0.018805645406246185
1701290498328484000,2.290484130859375,0.01942696049809456,0.07315916568040848,0.013696903362870216
1701290498338559000,2.30055908203125,0.021376395598053932,0.057502709329128265,0.012386894784867764
1701290498348634000,2.310634033203125,0.024107201024889946,0.0470103845000267,0.01617870293557644
1701290498358709000,2.320708984375,0.025373533368110657,0.046844203025102615,0.021382253617048264
1701290498368785000,2.330784912109375,0.029289977625012398,0.05259370431303978,0.02478470839560032
1701290498378860000,2.340860107421875,0.02852831408381462,0.048653289675712585,0.025049693882465363
1701290498388935200,2.35093505859375,0.03356222063302994,0.04418477043509483,0.03340109810233116
1701290498399010800,2.3610107421875,0.03355476260185242,0.04709933325648308,0.03536651283502579
1701290498409086000,2.3710859375,0.03254276141524315,0.0565066859126091,0.03326927497982979
1701290498419161000,2.3811611328125,0.028443625196814537,0.06013710796833038,0.02924124151468277
1701290498429237000,2.391237060546875,0.030245520174503326,0.06118479371070862,0.02093271166086197
1701290498439312000,2.401311767578125,0.02887612208724022,0.054488543421030045,0.013312876224517822
1701290498449387000,2.411386962890625,0.02642601542174816,0.034330274909734726,0.010009490884840488
1701290498459463000,2.421462890625,0.025669144466519356,0.02046639285981655,0.004994226153939962
1701290498469538000,2.4315380859375,0.01854119449853897,0.01745782047510147,0.007246194873005152
1701290498479613200,2.44161328125,0.014813034795224667,0.020730046555399895,0.0139608234167099
1701290498489688800,2.451688720703125,0.01381221879273653,0.02761644683778286,0.01836382783949375
1701290498499764000,2.461763916015625,0.014445518143475056,0.04440128803253174,0.008652344346046448
1701290498509839000,2.471839111328125,0.01593955233693123,0.05273591727018356,-0.005661347880959511
1701290498519915000,2.4819150390625,0.011123757809400558,0.05174095928668976,-0.015585617162287235
1701290498529990000,2.491989990234375,0.002010952914133668,0.032226379960775375,-0.013035108335316181
1701290498540065000,2.50206494140625,-0.0008689894457347691,0.002590989461168647,-0.005928729195147753
1701290498550141200,2.51214111328125,-0.004262389149516821,-0.010784470476210117,-0.0008146609761752188
1701290498560216000,2.522216064453125,-0.0030746194534003735,-0.012180233374238014,0.0025933862198144197
1701290498570291000,2.532291015625,0.0006149238906800747,-0.0012066783383488655,-0.0015480954898521304
1701290498580365800,2.54236572265625,0.005363340023905039,0.014688665047287941,-0.010785802267491817
1701290498590442000,2.55244189453125,0.004516454879194498,0.019992083311080933,-0.02239052578806877
1701290498600517000,2.56251708984375,0.0015715312911197543,-0.0036780918017029762,-0.018032796680927277
1701290498610592000,2.572592041015625,-0.000648479734081775,-0.03275235369801521,-0.008935438469052315
1701290498620668000,2.58266796875,-0.0009523464250378311,-0.039991624653339386,-0.004066913388669491
1701290498630743000,2.592742919921875,0.0019347865600138903,-0.03136564418673515,-0.00555056007578969
1701290498640818000,2.60281787109375,0.0004996090428903699,-0.011071559973061085,-0.007246993947774172
1701290498650893800,2.612893798828125,-0.0017206683987751603,0.0005004079430364072,-0.012113920412957668
1701290498660969000,2.622968994140625,-0.0029617014806717634,-0.000937166390940547,-0.010997523553669453
1701290498671043800,2.6330439453125,-0.0012727247085422277,-0.020837903022766113,-0.008929579518735409
1701290498681120000,2.6431201171875,0.00044528054422698915,-0.04145156964659691,-0.0057524279691278934
1701290498691195100,2.653195068359375,0.005394765175879002,-0.05272473022341728,-0.005372661165893078
1701290498701270000,2.66327001953125,0.0022975089959800243,-0.04874223843216896,-0.0008069378091022372
1701290498711346000,2.673345947265625,0.0019805929623544216,-0.0161837637424469,-0.008555138483643532
1701290498721421000,2.683421142578125,0.0013198626693338156,0.008170577697455883,-0.01774970255792141
1701290498731496200,2.69349609375,0.0019417107105255127,-0.004101534374058247,-0.012703011743724346
1701290498741571800,2.70357177734375,-0.002174471039324999,-0.03475851193070412,-0.002846919232979417
1701290498751647000,2.71364697265625,-0.009573797695338726,-0.05752880498766899,-0.0014974954538047314
1701290498761722000,2.72372216796875,-0.009995109401643276,-0.058830294758081436,-0.005055745132267475
1701290498771797000,2.733796875,-0.00007723167072981596,-0.05006450042128563,-0.0007712514488957822
1701290498781873000,2.743872802734375,0.004742024466395378,-0.03856337070465088,-0.0032887374982237816
1701290498791948000,2.753947998046875,0.008624380454421043,-0.024218520149588585,-0.01587803289294243
1701290498802023000,2.76402294921875,0.0089966906234622,-0.031450867652893066,-0.020786771550774574
1701290498812099000,2.77409912109375,0.0060232714749872684,-0.04779309034347534,-0.018613098189234734
1701290498822174000,2.784174072265625,0.002038117265328765,-0.057380735874176025,-0.013978932052850723
1701290498832248800,2.794248779296875,-0.00017869810108095407,-0.05408773571252823,-0.007005445193499327
1701290498842325000,2.804324951171875,0.0018317222129553556,-0.03737426921725273,-0.003710049670189619
1701290498852400000,2.814400146484375,0.004340420011430979,-0.016945160925388336,-0.0007933556917123497
1701290498862475000,2.82447509765625,0.0057412427850067616,0.004181429278105497,-0.005902363918721676
1701290498872551000,2.834551025390625,0.004314853344112635,0.004344680812209845,-0.011213505640625954
1701290498882626000,2.8446259765625,0.0057590859942138195,-0.01679575815796852,-0.007830225862562656
1701290498892701000,2.854700927734375,0.007106112781912088,-0.03242691606283188,-0.0021254688035696745
1701290498902776800,2.86477685546875,0.008521050214767456,-0.022895729169249535,0.004189684987068176
1701290498912852000,2.87485205078125,0.013125655241310596,-0.0031039142049849033,0.006767092272639275
1701290498922926800,2.8849267578125,0.018398448824882507,0.011471566744148731,0.0076240976341068745
1701290498933003800,2.895003662109375,0.009118663147091866,0.013510482385754585,0.002141447737812996
1701290498943078700,2.90507861328125,0.00013795174891129136,0.011444135569036007,-0.014737134799361229
1701290498953153800,2.91515380859375,-0.004477306269109249,0.0033870083279907703,-0.019711919128894806
1701290498963230000,2.92522998046875,-0.02334686741232872,-0.004087419714778662,-0.01312166079878807
1701290498973304800,2.935304931640625,-0.028537102043628693,-0.012469186447560787,-0.010041182860732079
1701290498983380000,2.9453798828125,-0.027595674619078636,-0.019602462649345398,-0.01563515141606331
1701290498993454800,2.955454833984375,-0.02756398357450962,-0.010838532820343971,-0.02214684709906578
1701290499003530800,2.96553076171875,-0.02365899085998535,0.011026019230484962,-0.032040223479270935
1701290499013606000,2.97560595703125,-0.019122028723359108,0.025410018861293793,-0.044566936790943146
1701290499023681000,2.985680908203125,-0.023423567414283752,0.023723438382148743,-0.04558958858251572
1701290499033757000,2.9957568359375,-0.03476943075656891,0.02010686695575714,-0.03952131047844887
1701290499043831800,3.005831787109375,-0.044606614857912064,0.017365673556923866,-0.03761901333928108
1701290499053907000,3.015906982421875,-0.04242335632443428,0.018444254994392395,-0.04066859930753708
1701290499063982800,3.02598291015625,-0.033727336674928665,0.017342237755656242,-0.04148033261299133
1701290499074057700,3.0360576171875,-0.026087526232004166,0.015196263790130615,-0.05329278111457825
1701290499084132900,3.0461328125,-0.02365899085998535,0.00833729188889265,-0.060321398079395294
1701290499094209000,3.056208984375,-0.020535634830594063,0.00019414443522691727,-0.058044128119945526
1701290499104284000,3.066283935546875,-0.02539670281112194,-0.010520551353693008,-0.04025767371058464
1701290499114358800,3.07635888671875,-0.031430892646312714,-0.01612011343240738,-0.01919127069413662
1701290499124435000,3.08643505859375,-0.035771314054727554,0.004405933897942305,-0.009475260972976685
1701290499134509800,3.096509765625,-0.036683179438114166,0.03278244659304619,-0.018128937110304832
1701290499144585000,3.1065849609375,-0.03254356235265732,0.05646034702658653,-0.029862824827432632
1701290499154660900,3.116660888671875,-0.030959513038396835,0.05542996898293495,-0.034209370613098145
1701290499164735700,3.12673583984375,-0.03345249965786934,0.037521809339523315,-0.047447144985198975
1701290499174811000,3.136810791015625,-0.033781930804252625,0.015107047744095325,-0.0672253742814064
1701290499184887000,3.146886962890625,-0.030529413372278214,-0.00944756343960762,-0.07907191663980484
1701290499194961700,3.156961669921875,-0.03021382912993431,-0.03862196207046509,-0.0773824080824852
1701290499205036800,3.167036865234375,-0.02317536063492298,-0.0749240443110466,-0.0689425840973854
1701290499215113000,3.177113037109375,-0.015567507594823837,-0.08953680843114853,-0.06451427936553955
1701290499225187800,3.187187744140625,-0.005465073045343161,-0.08767605572938919,-0.06506821513175964
1701290499235263000,3.197262939453125,0.0008482168195769191,-0.08361659944057465,-0.05679750069975853
1701290499245337900,3.207337890625,0.005292766261845827,-0.08599799871444702,-0.052498362958431244
1701290499255413800,3.217413818359375,0.012713132426142693,-0.0909687876701355,-0.048888180404901505
1701290499265489000,3.227489013671875,0.011945609003305435,-0.08591198176145554,-0.05673811212182045
1701290499275564000,3.23756396484375,0.000720118754543364,-0.06660352647304535,-0.056358881294727325
1701290499285639700,3.2476396484375,-0.01667804643511772,-0.04921894520521164,-0.0506831519305706
1701290499295714800,3.25771484375,-0.03309403732419014,-0.020138558000326157,-0.039449937641620636
1701290499305790000,3.2677900390625,-0.049977146089076996,0.010892861522734165,-0.0329587496817112
1701290499315865900,3.277865966796875,-0.05535726621747017,0.018070613965392113,-0.026733342558145523
1701290499325940700,3.287940673828125,-0.05047382786870003,0.007074687164276838,-0.021514613181352615
1701290499336016000,3.298015869140625,-0.04484150558710098,-0.0035414716694504023,-0.02912965603172779
1701290499346091800,3.308091796875,-0.041552238166332245,-0.011595402844250202,-0.042387139052152634
1701290499356167000,3.3181669921875,-0.0321267768740654,-0.021094899624586105,-0.059732839465141296
1701290499366242000,3.328241943359375,-0.028008731082081795,-0.026557307690382004,-0.07156260311603546
1701290499376318000,3.33831787109375,-0.015809856355190277,-0.034933216869831085,-0.06933246552944183
1701290499386392800,3.348392822265625,-0.008372445590794086,-0.029157353565096855,-0.06011020764708519
1701290499396468000,3.358468017578125,-0.007674431428313255,-0.015339807607233524,-0.058633483946323395
1701290499406544000,3.3685439453125,-0.008942628279328346,-0.014429805800318718,-0.052504219114780426
1701290499416618800,3.37861865234375,-0.001085770782083273,-0.029287314042448997,-0.051960669457912445
1701290499426694000,3.38869384765625,0.0013731258222833276,-0.030730482190847397,-0.05662253126502037
1701290499436770000,3.39877001953125,0.004576908424496651,-0.009207612834870815,-0.0606958381831646
1701290499446845000,3.408844970703125,0.008310394361615181,0.008534632623195648,-0.053226470947265625
1701290499456919800,3.418919921875,0.010892595164477825,0.013108078390359879,-0.04770760238170624
1701290499466994700,3.42899462890625,0.01432327926158905,0.002445580903440714,-0.05002188682556152
1701290499477070800,3.43907080078125,0.01696220599114895,-0.025777269154787064,-0.05524221807718277
1701290499487146000,3.44914599609375,0.020984910428524017,-0.049262888729572296,-0.06010328605771065
1701290499497220900,3.459220947265625,0.024641430005431175,-0.05329837650060654,-0.0737445279955864
1701290499507296800,3.469296875,0.02479402907192707,-0.045042842626571655,-0.09895268082618713
1701290499517372000,3.479371826171875,0.021384118124842644,-0.047213051468133926,-0.11303441226482391
1701290499527446800,3.48944677734375,0.015843678265810013,-0.05973976105451584,-0.1179194450378418
1701290499537522700,3.499522705078125,0.00768668157979846,-0.07075992226600647,-0.11335399001836777
1701290499547597800,3.509597900390625,0.0003254382754676044,-0.07296794652938843,-0.1171809509396553
1701290499557673000,3.5196728515625,-0.005032841581851244,-0.07737814635038376,-0.13348136842250824
1701290499567748900,3.529748779296875,-0.0020423782989382744,-0.08243948221206665,-0.14070358872413635
1701290499577824000,3.539823974609375,-0.0008319715270772576,-0.07330164313316345,-0.1413038671016693
1701290499587899000,3.54989892578125,-0.0031872710678726435,-0.05434047058224678,-0.1351303905248642
1701290499597974800,3.559974853515625,-0.005245628301054239,-0.03870052471756935,-0.11807124316692352
1701290499608050000,3.5700498046875,-0.005094626918435097,-0.03471270576119423,-0.1002805307507515
1701290499618125000,3.580125,-0.006536462344229221,-0.04171841964125633,-0.09211527556180954
1701290499628200700,3.59020068359375,-0.007829426787793636,-0.04868151992559433,-0.09722082316875458
1701290499638275800,3.60027587890625,-0.001463673310354352,-0.05409572646021843,-0.10909505933523178
1701290499648351000,3.61035107421875,0.0038892803713679314,-0.056476060301065445,-0.1147385686635971
1701290499658427000,3.620427001953125,0.0070794811472296715,-0.06683149188756943,-0.11708135157823563
1701290499668501800,3.630501708984375,0.007032875902950764,-0.07885833084583282,-0.11354812979698181
1701290499678577000,3.640576904296875,0.0035023230593651533,-0.08692451566457748,-0.11201228946447372
1701290499688652800,3.65065283203125,0.009188970550894737,-0.09726449847221375,-0.11258886009454727
1701290499698728000,3.66072802734375,0.01312086172401905,-0.10616638511419296,-0.11817377805709839
1701290499708802800,3.670802734375,0.013458817265927792,-0.11641236394643784,-0.11543525010347366
1701290499718878700,3.680878662109375,0.013068397529423237,-0.12329263985157013,-0.1101592630147934
1701290499728953900,3.690953857421875,0.019042134284973145,-0.1147574782371521,-0.1115904450416565
1701290499739029000,3.701029052734375,0.02996908500790596,-0.10488593578338623,-0.11835460364818573
1701290499749103900,3.711103759765625,0.03795883432030678,-0.08862680196762085,-0.1222396269440651
1701290499759179800,3.7211796875,0.03891384229063988,-0.06552015244960785,-0.11705951392650604
1701290499769255000,3.7312548828125,0.045690521597862244,-0.04300419241189957,-0.11140695214271545
1701290499779329800,3.741329833984375,0.04441114142537117,-0.02533571608364582,-0.09882431477308273
1701290499789405700,3.75140576171875,0.04303455352783203,-0.01600746251642704,-0.09638858586549759
1701290499799480800,3.761480712890625,0.037273600697517395,-0.00774686923250556,-0.09868422895669937
1701290499809555700,3.7715556640625,0.03713085874915123,-0.012894493527710438,-0.10159719735383987
1701290499819631900,3.7816318359375,0.03810211271047592,-0.028418857604265213,-0.10256898403167725
1701290499829707000,3.79170703125,0.0397852286696434,-0.03470471873879433,-0.10285021364688873
1701290499839782000,3.801781982421875,0.03954368084669113,-0.03452761843800545,-0.113588348031044
1701290499849857800,3.81185791015625,0.036021117120981216,-0.05124853923916817,-0.11797164380550385
1701290499859933000,3.821932861328125,0.028123512864112854,-0.09969782829284668,-0.1275307983160019
1701290499870007800,3.8320078125,0.026267023757100105,-0.14634603261947632,-0.14776761829853058
1701290499880083700,3.842083740234375,0.023985760286450386,-0.14998683333396912,-0.1701781302690506
1701290499890158800,3.852158935546875,0.021738585084676743,-0.12686634063720703,-0.17349855601787567
1701290499900233700,3.862233642578125,0.02268959954380989,-0.10620872676372528,-0.15958672761917114
1701290499910310000,3.872309814453125,0.01744903065264225,-0.10148587822914124,-0.13764788210391998
1701290499920384800,3.882384765625,0.015964584425091743,-0.11750958859920502,-0.1323694884777069
1701290499930460000,3.8924599609375,0.01005156897008419,-0.13676424324512482,-0.14803341031074524
1701290499940536000,3.9025361328125,0.004985437728464603,-0.15428757667541504,-0.16522011160850525
1701290499950611000,3.91261083984375,0.00433109886944294,-0.17010009288787842,-0.17293235659599304
1701290499960686000,3.92268603515625,0.01067874301224947,-0.1896551549434662,-0.1732199788093567
1701290499970762000,3.932761962890625,0.015918245539069176,-0.20342609286308289,-0.17492680251598358
1701290499980836900,3.9428369140625,0.01979527622461319,-0.2285732626914978,-0.18387022614479065
1701290499990912000,3.952912109375,0.019451195374131203,-0.26461753249168396,-0.20137731730937958
1701290500000988000,3.96298779296875,0.01703144796192646,-0.296409547328949,-0.22684459388256073
1701290500011062800,3.973062744140625,0.017307350412011147,-0.31889650225639343,-0.2480715960264206
1701290500021138000,3.983137939453125,0.018326543271541595,-0.33739081025123596,-0.25736814737319946
1701290500031213000,3.993213134765625,0.015564844943583012,-0.3388044238090515,-0.25239044427871704
1701290500041289000,4.0032890625,0.013104883022606373,-0.32764551043510437,-0.24380813539028168
1701290500051363800,4.01336376953125,0.018250908702611923,-0.31894761323928833,-0.22981908917427063
1701290500061439000,4.02343896484375,0.02420094422996044,-0.30088579654693604,-0.2078288346529007
1701290500071515000,4.033514892578125,0.030373618006706238,-0.2525731325149536,-0.18151386082172394
1701290500081590000,4.043590087890625,0.04285532236099243,-0.17678596079349518,-0.16133642196655273
1701290500091665200,4.0536650390625,0.044863875955343246,-0.11385173350572586,-0.13619299232959747
1701290500101740800,4.06374072265625,0.0329105444252491,-0.11835327744483948,-0.10625213384628296
1701290500111816000,4.07381591796875,0.01956011913716793,-0.16428880393505096,-0.07651794701814651
1701290500121891000,4.08389111328125,0.015225292183458805,-0.21188269555568695,-0.06335580348968506
1701290500131966700,4.093966796875,0.010551444254815578,-0.2207627296447754,-0.06777345389127731
1701290500142041900,4.104041748046875,0.016173377633094788,-0.21411335468292236,-0.07429900020360947
1701290500152117000,4.114116943359375,0.01859498955309391,-0.22043490409851074,-0.0638122707605362
1701290500162193200,4.124193115234375,0.017771540209650993,-0.22861160337924957,-0.06250625103712082
1701290500172268000,4.13426806640625,0.016824519261717796,-0.234516903758049,-0.09171447157859802
1701290500182343000,4.144343017578125,0.015615710988640785,-0.24701830744743347,-0.13577860593795776
1701290500192419000,4.154419189453125,0.013305152766406536,-0.264579713344574,-0.17933060228824615
1701290500202494000,4.164493896484375,0.016044747084379196,-0.28370174765586853,-0.21417860686779022
1701290500212569000,4.174569091796875,0.025239042937755585,-0.29236340522766113,-0.22770027816295624
1701290500222645000,4.18464501953125,0.04006486013531685,-0.2886160910129547,-0.21670754253864288
1701290500232720000,4.194719970703125,0.04749508202075958,-0.22289566695690155,-0.2087678611278534
1701290500242795000,4.204794921875,0.05077289789915085,-0.07565347850322723,-0.19838951528072357
1701290500252871000,4.214870849609375,0.0653795376420021,0.11534922569990158,-0.15955691039562225
1701290500262945800,4.22494580078125,0.09113523364067078,0.2785826325416565,-0.07842210680246353
1701290500273021000,4.23502099609375,0.11034541577100754,0.3491228520870209,0.011321363970637321
1701290500283097000,4.24509716796875,0.10758398473262787,0.32320070266723633,0.06846641004085541
1701290500293172000,4.255171875,0.10099052637815475,0.2327307164669037,0.0834789127111435
1701290500303246800,4.265246826171875,0.11042504757642746,0.10116603225469589,0.05789525806903839
1701290500313323000,4.275322998046875,0.13359187543392181,-0.023190274834632874,0.00845713447779417
1701290500323398000,4.28539794921875,0.13851499557495117,-0.12010696530342102,-0.026334933936595917
1701290500333473000,4.29547314453125,0.13879436254501343,-0.1748671531677246,-0.038052044808864594
1701290500343549000,4.305548828125,0.1401059776544571,-0.15915636718273163,-0.045401036739349365
1701290500353623800,4.315623779296875,0.13954031467437744,-0.09990422427654266,-0.05813387781381607
1701290500363699000,4.325698974609375,0.126963809132576,-0.05248904228210449,-0.06919585168361664
1701290500373775000,4.335775146484375,0.11900255084037781,-0.04754514992237091,-0.0644780620932579
1701290500383850000,4.34585009765625,0.11046845465898514,-0.058330684900283813,-0.06722191721200943
1701290500393924900,4.3559248046875,0.09623599052429199,-0.07357648015022278,-0.07532298564910889
1701290500404000000,4.366,0.0811539739370346,-0.08967262506484985,-0.09386337548494339
1701290500414076000,4.376075927734375,0.06585011631250381,-0.10088799893856049,-0.1167316734790802
1701290500424151000,4.386151123046875,0.04754994064569473,-0.11484109610319138,-0.13081952929496765
1701290500434226000,4.396225830078125,0.023501064628362656,-0.13072259724140167,-0.12141777575016022
1701290500444301800,4.4063017578125,0.0037888791412115097,-0.12732280790805817,-0.1032148003578186
1701290500454377000,4.416376953125,-0.011356517672538757,-0.09073416143655777,-0.10136603564023972
1701290500464452000,4.4264521484375,-0.03401442617177963,-0.06435928493738174,-0.11267515271902084
1701290500474527700,4.43652783203125,-0.05854640156030655,-0.07020598649978638,-0.11442244797945023
1701290500484603000,4.446602783203125,-0.0871700569987297,-0.06160823628306389,-0.10314982384443283
1701290500494678000,4.456677978515625,-0.11163278669118881,-0.019461315125226974,-0.10068213939666748
1701290500504754000,4.46675390625,-0.12713956832885742,0.0029518476221710443,-0.09014400839805603
1701290500514828800,4.476828857421875,-0.1360427886247635,0.018694326281547546,-0.06869197636842728
1701290500524904000,4.486904052734375,-0.13499777019023895,0.06100529804825783,-0.06989119946956635
1701290500534980000,4.49697998046875,-0.14386102557182312,0.11041732132434845,-0.08973175287246704
1701290500545055000,4.507054931640625,-0.15588226914405823,0.14224448800086975,-0.08624487370252609
1701290500555130000,4.517130126953125,-0.17123672366142273,0.15331099927425385,-0.059374112635850906
1701290500565206000,4.5272060546875,-0.1991695612668991,0.1491953432559967,-0.03743632137775421
1701290500575281000,4.537281005859375,-0.2290656715631485,0.12849804759025574,-0.047744620591402054
1701290500585356000,4.54735595703125,-0.2532847225666046,0.08853466063737869,-0.06125190481543541
1701290500595432000,4.557431884765625,-0.26853665709495544,0.06779875606298447,-0.06197841465473175
1701290500605506800,4.5675068359375,-0.29308807849884033,0.07221347838640213,-0.07125233858823776
1701290500615582000,4.57758203125,-0.31158292293548584,0.0699966624379158,-0.08102694153785706
1701290500625658000,4.587658203125,-0.3218885660171509,0.06686744838953018,-0.10985486209392548
1701290500635733000,4.59773291015625,-0.3136868178844452,0.08804357051849365,-0.16465924680233002
1701290500645807900,4.607807861328125,-0.30872294306755066,0.14063674211502075,-0.21577170491218567
1701290500655884000,4.617884033203125,-0.3006780743598938,0.21602684259414673,-0.22918178141117096
1701290500665959000,4.627958984375,-0.2958396375179291,0.3009342849254608,-0.21054258942604065
1701290500676034000,4.638033935546875,-0.3006269335746765,0.36927416920661926,-0.18283958733081818
1701290500686110000,4.64810986328125,-0.3110164701938629,0.39479950070381165,-0.17531563341617584
1701290500696184800,4.658184814453125,-0.29912838339805603,0.35738369822502136,-0.18007735908031464
1701290500706260000,4.668260009765625,-0.2875191271305084,0.2799679934978485,-0.16111645102500916
1701290500716336000,4.678336181640625,-0.2876618802547455,0.2354854941368103,-0.12467961758375168
1701290500726410800,4.68841064453125,-0.2789298892021179,0.2607114911079407,-0.09704452753067017
1701290500736486000,4.69848583984375,-0.22415800392627716,0.3024410903453827,-0.07570008933544159
1701290500746561000,4.70856103515625,-0.1446562558412552,0.35483425855636597,-0.05312899872660637
1701290500756637000,4.718636962890625,-0.056656885892152786,0.4250713884830475,-0.02576235495507717
1701290500766712000,4.728712158203125,0.007493602577596903,0.5220890045166016,0.025500832125544548
1701290500776788000,4.7387880859375,0.050150252878665924,0.6264796257019043,0.11228153109550476
1701290500786862800,4.74886279296875,0.05423261225223541,0.705398678779602,0.23935799300670624
1701290500796938000,4.75893798828125,0.05265256017446518,0.7207459211349487,0.4106927216053009
1701290500807013000,4.76901318359375,0.05940314009785652,0.6365761756896973,0.5719974637031555
1701290500817088800,4.7790888671875,0.07521432638168335,0.4999980926513672,0.7086842060089111
1701290500827164000,4.789163818359375,0.10095564275979996,0.361814945936203,0.8182421326637268
1701290500837239000,4.799239013671875,0.1209288164973259,0.2655065059661865,0.9136852622032166
1701290500847315000,4.80931494140625,0.13202647864818573,0.24671417474746704,1.003811240196228
1701290500857389800,4.819389892578125,0.1457846313714981,0.33401045203208923,1.0923916101455688
1701290500867465000,4.82946484375,0.1692417562007904,0.4970867335796356,1.1799122095108032
1701290500877540900,4.839540771484375,0.20870181918144226,0.6853597164154053,1.2735520601272583
1701290500887616000,4.849615966796875,0.2601817846298218,0.8477723002433777,1.3619661331176758
1701290500897691100,4.859691162109375,0.31514328718185425,0.9391847848892212,1.4356364011764526
1701290500907767000,4.86976708984375,0.35766252875328064,0.9388535022735596,1.475451946258545
1701290500917842000,4.879842041015625,0.38027089834213257,0.8653273582458496,1.4908429384231567
1701290500927917000,4.8899169921875,0.3911837339401245,0.772497832775116,1.491295337677002
1701290500937992400,4.899992431640625,0.40862345695495605,0.6833652853965759,1.4873552322387695
1701290500948067600,4.910067626953125,0.4406948387622833,0.5853870511054993,1.4647098779678345
1701290500958142500,4.920142578125,0.4812486469745636,0.4791644513607025,1.413964867591858
1701290500968218600,4.930218505859375,0.5202615857124329,0.37340208888053894,1.3422504663467407
1701290500978293800,4.940293701171875,0.5402083992958069,0.26945385336875916,1.2538756132125854
1701290500988368400,4.950368408203125,0.5477142333984375,0.20298027992248535,1.1681039333343506
1701290500998444500,4.960444580078125,0.550436794757843,0.1782592236995697,1.0854346752166748
1701290501008519700,4.970519775390625,0.5504759550094604,0.14989975094795227,0.9959234595298767
1701290501018594600,4.980594482421875,0.5396925210952759,0.10056016594171524,0.8964980244636536
1701290501028670500,4.99067041015625,0.5246493816375732,0.014134194701910019,0.7784917950630188
1701290501038745600,5.00074560546875,0.5091798901557922,-0.08814370632171631,0.6530446410179138
1701290501048820500,5.010820556640625,0.49442437291145325,-0.220845565199852,0.5185105204582214
1701290501058896600,5.020896728515625,0.4708189070224762,-0.32517009973526,0.3779406249523163
1701290501068971500,5.030971435546875,0.4484054744243622,-0.3675724267959595,0.24245604872703552
1701290501079046700,5.041046630859375,0.43564867973327637,-0.33810240030288696,0.132211834192276
1701290501089122600,5.05112255859375,0.42890074849128723,-0.2616449296474457,0.059537895023822784
1701290501099197700,5.06119775390625,0.40787962079048157,-0.179171621799469,0.03435824066400528
1701290501109272800,5.07127294921875,0.3698241114616394,-0.14074593782424927,0.04597095400094986
1701290501119348500,5.081348388671875,0.3197292685508728,-0.15366598963737488,0.05182138457894325
1701290501129423600,5.091423583984375,0.28574705123901367,-0.18761517107486725,0.05007435381412506
1701290501139498800,5.101498779296875,0.2779434621334076,-0.2164526730775833,0.03099360130727291
1701290501149574400,5.111574462890625,0.27319052815437317,-0.2371630221605301,0.0005478122038766742
1701290501159649500,5.1216494140625,0.2538229525089264,-0.2534192204475403,-0.04117593169212341
1701290501169724700,5.131724609375,0.21635226905345917,-0.26864132285118103,-0.0760260596871376
1701290501179800600,5.141800537109375,0.18798933923244476,-0.2984543442726135,-0.1214718371629715
1701290501189875700,5.151875732421875,0.16539429128170013,-0.3166098892688751,-0.16211088001728058
1701290501199950600,5.16195068359375,0.1538124680519104,-0.32754164934158325,-0.17501549422740936
1701290501210026500,5.172026611328125,0.15685299038887024,-0.33845847845077515,-0.16128689050674438
1701290501220101600,5.1821015625,0.15785513818264008,-0.3165566325187683,-0.11862251907587051
1701290501230176800,5.1921767578125,0.14870372414588928,-0.2653437852859497,-0.062197063118219376
1701290501240252400,5.20225244140625,0.14654603600502014,-0.21521244943141937,0.006479737348854542
1701290501250327600,5.21232763671875,0.14818175137043,-0.18300338089466095,0.07338473200798035
1701290501260402700,5.222402587890625,0.1549277901649475,-0.1684310883283615,0.14394225180149078
1701290501270477600,5.2324775390625,0.16568057239055634,-0.17695321142673492,0.2019789218902588
1701290501280553500,5.242553466796875,0.17605918645858765,-0.19606085121631622,0.24414874613285065
1701290501290628600,5.252628662109375,0.18495813012123108,-0.2060764729976654,0.2812548279762268
1701290501300703500,5.262703369140625,0.19363310933113098,-0.19264215230941772,0.3148418366909027
1701290501310779600,5.272779541015625,0.19486002624034882,-0.14858414232730865,0.3394366502761841
1701290501320854800,5.282854736328125,0.18496373295783997,-0.09023269265890121,0.3495478928089142
1701290501330929400,5.292929443359375,0.1730082631111145,-0.03223303705453873,0.34875690937042236
1701290501341005600,5.303005615234375,0.16426751017570496,0.010424677282571793,0.34835559129714966
1701290501351080700,5.313080810546875,0.1568830907344818,0.05061523988842964,0.344967782497406
1701290501361155600,5.323155517578125,0.14318139851093292,0.0914367064833641,0.32924845814704895
1701290501371231500,5.3332314453125,0.12020470201969147,0.1300560086965561,0.30002161860466003
1701290501381306600,5.343306640625,0.09173684567213058,0.14683152735233307,0.2669816315174103
1701290501391381500,5.353381591796875,0.0616026446223259,0.1542377769947052,0.23021216690540314
1701290501401457700,5.363457763671875,0.04268195107579231,0.14817668497562408,0.2031501829624176
1701290501411532500,5.373532470703125,0.030248716473579407,0.12522369623184204,0.18741171061992645
1701290501421607400,5.383607421875,0.02112898789346218,0.07056684046983719,0.16598443686962128
1701290501431683600,5.39368359375,0.014929681085050106,0.006970824208110571,0.1291758269071579
1701290501441758700,5.4037587890625,0.008272577077150345,-0.06057706102728844,0.09025319665670395
1701290501451833600,5.41383349609375,0.0015699334908276796,-0.12467561662197113,0.04505189508199692
1701290501461909500,5.423909423828125,-0.004822984803467989,-0.19127781689167023,0.0057678744196891785
1701290501471984600,5.433984619140625,-0.015510516241192818,-0.2562014162540436,-0.02966415137052536
1701290501482059800,5.444059814453125,-0.022341525182127953,-0.31596675515174866,-0.05676048621535301
1701290501492135400,5.454135498046875,-0.03473773971199989,-0.35688143968582153,-0.07833049446344376
1701290501502210600,5.46421044921875,-0.0526387095451355,-0.3856313228607178,-0.09808129072189331
1701290501512285700,5.47428564453125,-0.08047913014888763,-0.4134046137332916,-0.11064795404672623
1701290501522361600,5.484361572265625,-0.11040773242712021,-0.4219951927661896,-0.10863886028528214
1701290501532436700,5.494436767578125,-0.14421336352825165,-0.41873547434806824,-0.09083456546068192
1701290501542511600,5.50451171875,-0.17004495859146118,-0.41629254817962646,-0.06791513413190842
1701290501552587500,5.51458740234375,-0.18752968311309814,-0.4242388904094696,-0.052750829607248306
1701290501562662700,5.52466259765625,-0.1943439096212387,-0.4274354875087738,-0.04995504394173622
1701290501572737800,5.53473779296875,-0.19117023050785065,-0.4037943482398987,-0.06082127243280411
1701290501582813400,5.5448134765625,-0.1792195588350296,-0.35872378945350647,-0.0736909955739975
1701290501592888600,5.554888671875,-0.16589681804180145,-0.29699811339378357,-0.08742652088403702
1701290501602963700,5.564963623046875,-0.15635818243026733,-0.23390570282936096,-0.10636106133460999
1701290501613039600,5.57503955078125,-0.15225425362586975,-0.17810022830963135,-0.1222500130534172
1701290501623114500,5.585114501953125,-0.14391109347343445,-0.1343335658311844,-0.13072046637535095
1701290501633189600,5.595189697265625,-0.131353497505188,-0.08672451227903366,-0.14656120538711548
1701290501643265800,5.605265869140625,-0.11032997071743011,-0.04315652698278427,-0.15361672639846802
1701290501653340700,5.615340576171875,-0.09959902614355087,-0.006999852601438761,-0.16495034098625183
1701290501663415600,5.62541552734375,-0.09368787705898285,0.0199273694306612,-0.1777809113264084
1701290501673491700,5.63549169921875,-0.0901474729180336,0.028306206688284874,-0.18927910923957825
1701290501683566600,5.645566650390625,-0.09536327421665192,0.02020833268761635,-0.19894585013389587
1701290501693641700,5.655641845703125,-0.10807081311941147,-0.004035487771034241,-0.21020303666591644
1701290501703717600,5.665717529296875,-0.11974450945854187,-0.0404941625893116,-0.21581459045410156
1701290501713792500,5.67579248046875,-0.1230526864528656,-0.09895534068346024,-0.2103833258152008
1701290501723867600,5.68586767578125,-0.12389637529850006,-0.15695606172084808,-0.20776145160198212
1701290501733943800,5.69594384765625,-0.12769778072834015,-0.20061512291431427,-0.20788422226905823
1701290501744018400,5.706018310546875,-0.1353658139705658,-0.2244323045015335,-0.22709760069847107
1701290501754093600,5.716093505859375,-0.14620114862918854,-0.22306637465953827,-0.263643354177475
1701290501764169700,5.726169677734375,-0.16090579330921173,-0.18863089382648468,-0.315684974193573
1701290501774244600,5.73624462890625,-0.1789170205593109,-0.14179840683937073,-0.36857324838638306
1701290501784319700,5.74631982421875,-0.2100408524274826,-0.1121707484126091,-0.41883108019828796
1701290501794395600,5.756395751953125,-0.25426262617111206,-0.09704239666461945,-0.47215235233306885
1701290501804470500,5.766470458984375,-0.30256038904190063,-0.0925096943974495,-0.5347369313240051
1701290501814545700,5.776545654296875,-0.3529769778251648,-0.08679082244634628,-0.592515230178833
1701290501824620800,5.786620849609375,-0.3907887935638428,-0.04380473867058754,-0.6049681901931763
1701290501834696400,5.796696533203125,-0.412183552980423,0.011657721363008022,-0.5535673499107361
1701290501844771600,5.806771484375,-0.4328715205192566,0.03045457787811756,-0.4905902147293091
1701290501854846700,5.8168466796875,-0.4309218227863312,0.0002860235108528286,-0.47958603501319885
1701290501864922600,5.826922607421875,-0.40964823961257935,-0.12252112478017807,-0.5269495844841003
1701290501874997500,5.83699755859375,-0.39067453145980835,-0.33417078852653503,-0.5769544243812561
1701290501885072600,5.84707275390625,-0.36377766728401184,-0.5859827995300293,-0.5870912075042725
1701290501895148500,5.8571484375,-0.34050458669662476,-0.7721401453018188,-0.5255753993988037
1701290501905223700,5.8672236328125,-0.3249474763870239,-0.7497565150260925,-0.42208412289619446
1701290501915298800,5.877298828125,-0.31249505281448364,-0.556198239326477,-0.3194349706172943
1701290501925374500,5.88737451171875,-0.26340553164482117,-0.2944931387901306,-0.21166910231113434
1701290501935450000,5.8974501953125,-0.20917239785194397,-0.03259789198637009,-0.10444411635398865
1701290501945525200,5.907525146484375,-0.1958446055650711,0.16771283745765686,-0.011659053154289722
1701290501955601000,5.917600830078125,-0.2086743861436844,0.2862599790096283,0.05801030620932579
1701290501965676000,5.927676025390625,-0.24036945402622223,0.3604111671447754,0.0791800394654274
1701290501975751200,5.937751220703125,-0.26153892278671265,0.39009878039360046,0.03359471261501312
1701290501985827000,5.9478271484375,-0.2525891065597534,0.3496043384075165,-0.09608658403158188
1701290501995902000,5.95790185546875,-0.21503721177577972,0.23694224655628204,-0.2707827687263489
1701290502005977000,5.96797705078125,-0.16739937663078308,0.09804028272628784,-0.43248510360717773
1701290502016053000,5.978052978515625,-0.11489356309175491,-0.045091576874256134,-0.5325877666473389
1701290502026128100,5.988128173828125,-0.07979842275381088,-0.1601870059967041,-0.5811305046081543
1701290502036203300,5.998203369140625,-0.0593983456492424,-0.24098864197731018,-0.573822021484375
1701290502046279000,6.00827880859375,-0.05895066633820534,-0.250308632850647,-0.5034383535385132
1701290502056354000,6.01835400390625,-0.061529140919446945,-0.1610535979270935,-0.3807081878185272
1701290502066429200,6.02842919921875,-0.04032052308320999,0.004816326778382063,-0.2719830572605133
1701290502076505000,6.038505126953125,0.011964784003794193,0.17979826033115387,-0.2368421107530594
1701290502086580000,6.048580078125,0.0634591355919838,0.3105892837047577,-0.28109052777290344
1701290502096655000,6.058655029296875,0.09656035900115967,0.35333383083343506,-0.3583988845348358
1701290502106731300,6.068731201171875,0.11329619586467743,0.31375205516815186,-0.43165794014930725
1701290502116806100,6.07880615234375,0.09009047597646713,0.23704397678375244,-0.47766029834747314
1701290502126881000,6.088881103515625,0.03419472277164459,0.13300864398479462,-0.5015363693237305
1701290502136957200,6.098957275390625,-0.031144604086875916,0.012602876871824265,-0.5040969848632812
1701290502147032000,6.109031982421875,-0.08648908883333206,-0.09844880551099777,-0.49280864000320435
1701290502157107200,6.119107177734375,-0.12373392283916473,-0.17418324947357178,-0.4643367826938629
1701290502167183000,6.12918310546875,-0.13743774592876434,-0.17381040751934052,-0.41155239939689636
1701290502177258000,6.139258056640625,-0.13362251222133636,-0.10171544551849365,-0.342576801776886
1701290502187333000,6.1493330078125,-0.11462724953889847,0.007754059974104166,-0.2903279662132263
1701290502197409300,6.1594091796875,-0.0894145667552948,0.10066536068916321,-0.27056384086608887
1701290502207484000,6.16948388671875,-0.06169452145695686,0.14121943712234497,-0.2793027460575104
1701290502217559000,6.17955908203125,-0.0405503548681736,0.1271504908800125,-0.30891522765159607
1701290502227635200,6.18963525390625,-0.02040274254977703,0.07772116363048553,-0.34808820486068726
1701290502237710000,6.1997099609375,0.0036171053070575,-0.0012122709304094315,-0.39369750022888184
1701290502247785200,6.20978515625,0.013432984240353107,-0.08928780257701874,-0.4384590983390808
1701290502257861000,6.219861083984375,0.0005819007055833936,-0.16530640423297882,-0.4655407965183258
1701290502267936000,6.22993603515625,-0.02280597947537899,-0.22485734522342682,-0.4754965007305145
1701290502278011100,6.24001123046875,-0.04436533525586128,-0.24520257115364075,-0.4772757589817047
1701290502288087000,6.250087158203125,-0.04987221956253052,-0.22542673349380493,-0.46778637170791626
1701290502298162000,6.260161865234375,-0.0362301766872406,-0.15446068346500397,-0.43932729959487915
1701290502308237000,6.270237060546875,-0.018077004700899124,-0.0856456607580185,-0.41973787546157837
1701290502318313200,6.280313232421875,-0.0059806606732308865,-0.011060107499361038,-0.40890493988990784
1701290502328388000,6.29038818359375,-0.003662378992885351,0.06100476533174515,-0.4051078259944916
1701290502338463000,6.300462890625,-0.00022663500567432493,0.11505760997533798,-0.4065594971179962
1701290502348539100,6.3105390625,0.011081946082413197,0.14320509135723114,-0.39750343561172485
1701290502358614000,6.320614013671875,0.023258185014128685,0.13956321775913239,-0.3721802234649658
1701290502368689200,6.330689208984375,0.020433370023965836,0.11841665953397751,-0.34179940819740295
1701290502378765000,6.34076513671875,0.017195764929056168,0.08184852451086044,-0.31247320771217346
1701290502388840000,6.35083984375,0.012851616367697716,0.025462215766310692,-0.30726006627082825
1701290502398915000,6.3609150390625,0.010907242074608803,-0.05283818021416664,-0.30581530928611755
1701290502408991000,6.370990966796875,0.004733236040920019,-0.1251928061246872,-0.316388875246048
1701290502419065900,6.38106591796875,-0.0004777711001224816,-0.1804688423871994,-0.3263613283634186
1701290502429141000,6.39114111328125,-0.0036916739773005247,-0.21295301616191864,-0.3380845785140991
1701290502439217200,6.401217041015625,-0.00310604483820498,-0.23351901769638062,-0.34735050797462463
1701290502449292300,6.411292236328125,-0.0007685882737860084,-0.22684699296951294,-0.3440804183483124
1701290502459367000,6.421366943359375,0.0028871328104287386,-0.19338437914848328,-0.34537604451179504
1701290502469443000,6.431443115234375,-0.002740126335993409,-0.14863181114196777,-0.34348946809768677
1701290502479518200,6.441518310546875,-0.009937318973243237,-0.10407686978578568,-0.33767417073249817
1701290502489593000,6.451593017578125,-0.021389978006482124,-0.07579542696475983,-0.328419953584671
1701290502499669000,6.4616689453125,-0.027883030474185944,-0.049246642738580704,-0.3100697100162506
1701290502509744000,6.471744140625,-0.03514546900987625,-0.022064821794629097,-0.2878440320491791
1701290502519819000,6.481819091796875,-0.052081577479839325,0.007274158298969269,-0.2672402262687683
1701290502529895200,6.491895263671875,-0.06375261396169662,0.0378967821598053,-0.2538740932941437
1701290502539970000,6.501969970703125,-0.07689984142780304,0.07007841765880585,-0.24892567098140717
1701290502550045000,6.512044921875,-0.08318010717630386,0.09292621165513992,-0.2500138282775879
1701290502560121000,6.52212109375,-0.09584050625562668,0.10545159131288528,-0.2489248663187027
1701290502570196200,6.5321962890625,-0.10108693689107895,0.10944340378046036,-0.24727557599544525
1701290502580271000,6.54227099609375,-0.10237403959035873,0.11096753180027008,-0.23901018500328064
1701290502590346000,6.552345947265625,-0.09794653952121735,0.1089445948600769,-0.23652784526348114
1701290502600422100,6.562422119140625,-0.08397426456212997,0.11927499622106552,-0.2416858673095703
1701290502610497000,6.5724970703125,-0.07582632452249527,0.15045501291751862,-0.24293169379234314
1701290502620573000,6.582572998046875,-0.07501166313886642,0.21331414580345154,-0.24066373705863953
1701290502630648000,6.59264794921875,-0.0836845114827156,0.27671387791633606,-0.22943532466888428
1701290502640723000,6.602722900390625,-0.09742056578397751,0.30744171142578125,-0.20944909751415253
1701290502650798000,6.612798095703125,-0.10403186082839966,0.29620903730392456,-0.19734317064285278
1701290502660874200,6.622874267578125,-0.11171641200780869,0.2643568217754364,-0.19727498292922974
1701290502670948900,6.632948974609375,-0.12229128926992416,0.24138306081295013,-0.19854611158370972
1701290502681024000,6.64302392578125,-0.13648220896720886,0.23411928117275238,-0.19688457250595093
1701290502691100200,6.65310009765625,-0.15593713521957397,0.2410821169614792,-0.18910840153694153
1701290502701175000,6.663175048828125,-0.16743400692939758,0.24527128040790558,-0.18536587059497833
1701290502711250200,6.673250244140625,-0.17904618382453918,0.24689607322216034,-0.19132761657238007
1701290502721326000,6.683326171875,-0.18656988441944122,0.2516825795173645,-0.2038964033126831
1701290502731401000,6.69340087890625,-0.19760681688785553,0.26393258571624756,-0.205359548330307
1701290502741476000,6.70347607421875,-0.20306682586669922,0.2824905514717102,-0.19496922194957733
1701290502751552000,6.713552001953125,-0.19471488893032074,0.29152587056159973,-0.1726178377866745
1701290502761627000,6.723626953125,-0.1837162971496582,0.2910800576210022,-0.1576109379529953
1701290502771702000,6.733701904296875,-0.17961503565311432,0.28183168172836304,-0.1597537100315094
1701290502781778200,6.743778076171875,-0.1770392209291458,0.2824804186820984,-0.16502197086811066
1701290502791853000,6.75385302734375,-0.17931516468524933,0.3137938678264618,-0.15073172748088837
1701290502801928000,6.763927978515625,-0.17542694509029388,0.35740926861763,-0.11219098418951035
1701290502812004000,6.774004150390625,-0.16589389741420746,0.399211049079895,-0.0686592236161232
1701290502822079200,6.784079345703125,-0.15502206981182098,0.43609529733657837,-0.018098575994372368
1701290502832154000,6.794154052734375,-0.14719264209270477,0.4670071303844452,0.028899291530251503
1701290502842230000,6.80422998046875,-0.13773736357688904,0.4967767596244812,0.07994410395622253
1701290502852305200,6.81430517578125,-0.1326209008693695,0.52339106798172,0.12594833970069885
1701290502862380000,6.824380126953125,-0.13011884689331055,0.5409050583839417,0.1561422049999237
1701290502872456200,6.834456298828125,-0.1247888058423996,0.556797981262207,0.17173634469509125
1701290502882531000,6.844531005859375,-0.11667175590991974,0.5620753169059753,0.17746666073799133
1701290502892606000,6.85460595703125,-0.10710887610912323,0.5524170994758606,0.1773926317691803
1701290502902682000,6.86468212890625,-0.08031108230352402,0.5291038155555725,0.1847168505191803
1701290502912757200,6.87475732421875,-0.037219274789094925,0.45986613631248474,0.19830909371376038
1701290502922832100,6.88483203125,0.008737565018236637,0.358570396900177,0.21245260536670685
1701290502932907300,6.8949072265625,0.03789518401026726,0.28777533769607544,0.21539859473705292
1701290502942982400,6.904982421875,0.05282299965620041,0.26018205285072327,0.20150355994701385
1701290502953057300,6.915057373046875,0.0674930214881897,0.24307683110237122,0.18936219811439514
1701290502963133400,6.925133544921875,0.10515038669109344,0.20884989202022552,0.18711316585540771
1701290502973208300,6.935208251953125,0.15812651813030243,0.1795676350593567,0.21548515558242798
1701290502983283200,6.945283203125,0.20625196397304535,0.21772167086601257,0.25233983993530273
1701290502993359400,6.955359375,0.252543568611145,0.2575617730617523,0.2913069427013397
1701290503003434500,6.9654345703125,0.2856282889842987,0.262409508228302,0.3443877398967743
1701290503013509400,6.97550927734375,0.31810206174850464,0.26885756850242615,0.4238780438899994
1701290503023585300,6.985585205078125,0.3510826528072357,0.31809115409851074,0.524438738822937
1701290503033660400,6.995660400390625,0.3846896290779114,0.38893070816993713,0.6527487635612488
1701290503043735300,7.0057353515625,0.4211845099925995,0.4543435275554657,0.7987134456634521
1701290503053811200,7.015811279296875,0.45896783471107483,0.5077942609786987,0.9478754997253418
1701290503063886300,7.02588623046875,0.500688374042511,0.5289471745491028,1.0888645648956299
1701290503073961200,7.035961181640625,0.5348913669586182,0.5013225078582764,1.22288978099823
1701290503084037400,7.046037353515625,0.5464164614677429,0.44321390986442566,1.3548128604888916
1701290503094112500,7.056112548828125,0.5392869114875793,0.386994332075119,1.4791580438613892
1701290503104187100,7.066187255859375,0.5293940901756287,0.3423469662666321,1.5719307661056519
1701290503114263300,7.07626318359375,0.5214682221412659,0.30607229471206665,1.6174296140670776
1701290503124338400,7.08633837890625,0.5137290954589844,0.24208267033100128,1.6166048049926758
1701290503134413300,7.096413330078125,0.5132739543914795,0.16260568797588348,1.5648835897445679
1701290503144489200,7.1064892578125,0.5320916175842285,0.07805752009153366,1.4981859922409058
1701290503154564400,7.116564453125,0.5611493587493896,-0.037449903786182404,1.41986083984375
1701290503164639200,7.12663916015625,0.5788063406944275,-0.18654698133468628,1.3184399604797363
1701290503174715400,7.13671533203125,0.5801302194595337,-0.34660375118255615,1.1551998853683472
1701290503184790300,7.146790283203125,0.567621111869812,-0.44347119331359863,0.9620869159698486
1701290503194865200,7.156865234375,0.5491315722465515,-0.45800912380218506,0.784751296043396
1701290503204941300,7.16694140625,0.5348932147026062,-0.4179556965827942,0.6459054946899414
1701290503215016400,7.177016357421875,0.5200037956237793,-0.3032115399837494,0.5602135062217712
1701290503225091300,7.18709130859375,0.5140838027000427,-0.15869776904582977,0.5267482399940491
1701290503235167200,7.197167236328125,0.5104318261146545,0.005677326582372189,0.530500590801239
1701290503245242400,7.207242431640625,0.5030229091644287,0.124189592897892,0.5665693879127502
1701290503255317200,7.217317138671875,0.48348304629325867,0.16473914682865143,0.6084274053573608
1701290503265393200,7.22739306640625,0.455705463886261,0.125992551445961,0.633604884147644
1701290503275468300,7.23746826171875,0.43483373522758484,0.027723772451281548,0.584062933921814
1701290503285543200,7.247543212890625,0.42582187056541443,-0.1228494867682457,0.45745569467544556
1701290503295619300,7.257619384765625,0.4154565930366516,-0.3062105178833008,0.28324902057647705
1701290503305694500,7.267694580078125,0.39130356907844543,-0.47358009219169617,0.12342393398284912
1701290503315769300,7.277769287109375,0.3616117238998413,-0.6121097207069397,0.010755974799394608
1701290503325845200,7.28784521484375,0.32732459902763367,-0.681428074836731,-0.040109600871801376
1701290503335920400,7.29792041015625,0.30201470851898193,-0.6870404481887817,-0.04172055050730705
1701290503345995500,7.30799560546875,0.28492680191993713,-0.6492592096328735,-0.013322463259100914
1701290503356071200,7.3180712890625,0.27442383766174316,-0.580108106136322,0.02490321919322014
1701290503366146300,7.328146240234375,0.2652561664581299,-0.49431464076042175,0.05307413637638092
1701290503376221400,7.338221435546875,0.2622707784175873,-0.42324578762054443,0.07024167478084564
1701290503386297300,7.34829736328125,0.25891703367233276,-0.3861445188522339,0.07595042139291763
1701290503396372200,7.358372314453125,0.24207574129104614,-0.3958810269832611,0.07823408395051956
1701290503406447400,7.368447265625,0.2135077565908432,-0.42992180585861206,0.08662757277488708
1701290503416523300,7.378523193359375,0.1788690835237503,-0.48354828357696533,0.10429604351520538
1701290503426598400,7.388598388671875,0.14452362060546875,-0.529004693031311,0.12989541888237
1701290503436673300,7.39867333984375,0.11194517463445663,-0.5647630095481873,0.1532585322856903
1701290503446749200,7.408749267578125,0.08201923221349716,-0.5757999420166016,0.179377481341362
1701290503456824300,7.41882421875,0.05233830586075783,-0.5517177581787109,0.21362067759037018
1701290503466899500,7.4288994140625,0.01894759200513363,-0.4863331615924835,0.24453091621398926
1701290503476975000,7.43897509765625,-0.015019696205854416,-0.39756840467453003,0.28012165427207947
1701290503487050200,7.44905029296875,-0.03760276734828949,-0.30710482597351074,0.3084033727645874
1701290503497125400,7.45912548828125,-0.04896381497383118,-0.22443602979183197,0.33019495010375977
1701290503507201500,7.469201416015625,-0.051906075328588486,-0.15816088020801544,0.33589091897010803
1701290503517276200,7.479276123046875,-0.05642945319414139,-0.09935588389635086,0.3403325378894806
1701290503527351300,7.489351318359375,-0.04760080948472023,-0.04836779832839966,0.34167715907096863
1701290503537427500,7.499427490234375,-0.02262967824935913,-0.020377974957227707,0.34042441844940186
1701290503547502300,7.50950244140625,0.00019920444174204022,-0.023028086870908737,0.32643723487854004
1701290503557577500,7.519577392578125,0.009044094942510128,-0.02315671741962433,0.3002743422985077
1701290503567653400,7.5296533203125,0.015223161317408085,-0.027409520000219345,0.2550749182701111
1701290503577728300,7.539728271484375,0.0127557422965765,-0.029415946453809738,0.1968342363834381
1701290503587803400,7.549803466796875,0.0026501116808503866,-0.0418262779712677,0.14449219405651093
1701290503597879300,7.55987939453125,-0.00893570389598608,-0.048355016857385635,0.09069767594337463
1701290503607954200,7.5699541015625,-0.022179070860147476,-0.06325220316648483,0.0487840510904789
1701290503618029300,7.580029296875,-0.04057725518941879,-0.08224400877952576,0.007006244268268347
1701290503628105500,7.59010546875,-0.05879594013094902,-0.10746174305677414,-0.022227007895708084
1701290503638180400,7.600180419921875,-0.0699082463979721,-0.12236292660236359,-0.05672746151685715
1701290503648255200,7.610255126953125,-0.07388967275619507,-0.14434519410133362,-0.08376120775938034
1701290503658331400,7.620331298828125,-0.08116356283426285,-0.16204163432121277,-0.11088097840547562
1701290503668406300,7.63040625,-0.09550414979457855,-0.158122256398201,-0.14624296128749847
1701290503678481400,7.6404814453125,-0.1122591644525528,-0.1470823884010315,-0.1958717703819275
1701290503688557300,7.650557373046875,-0.1336725801229477,-0.1230446994304657,-0.2507967948913574
1701290503698632200,7.660632080078125,-0.14598436653614044,-0.10021182149648666,-0.30753013491630554
1701290503708707300,7.670707275390625,-0.1626480370759964,-0.09574863314628601,-0.3601225018501282
1701290503718783500,7.680783447265625,-0.1753225475549698,-0.11078856885433197,-0.40579330921173096
1701290503728858000,7.690858154296875,-0.18715551495552063,-0.14452148973941803,-0.439861536026001
1701290503738933200,7.700933349609375,-0.19611677527427673,-0.1837538480758667,-0.4535174071788788
1701290503749009400,7.711009521484375,-0.18526732921600342,-0.2111428678035736,-0.44297370314598083
1701290503759084300,7.721084228515625,-0.16892564296722412,-0.21604254841804504,-0.4194699823856354
1701290503769159400,7.731159423828125,-0.1491423398256302,-0.19806301593780518,-0.39155444502830505
1701290503779235300,7.7412353515625,-0.12264016270637512,-0.1578540802001953,-0.36058509349823
1701290503789310200,7.751310302734375,-0.10071329772472382,-0.11261709034442902,-0.33099204301834106
1701290503799385300,7.76138525390625,-0.08168181031942368,-0.07365930825471878,-0.2955152690410614
1701290503809461200,7.771461181640625,-0.06766533106565475,-0.04457385838031769,-0.25346341729164124
1701290503819536100,7.7815361328125,-0.05745770037174225,-0.01908101700246334,-0.216642826795578
1701290503829611300,7.791611328125,-0.05691095441579819,0.0038626487366855145,-0.20119568705558777
1701290503839687400,7.8016875,-0.0709117203950882,0.028249215334653854,-0.20106546580791473
1701290503849762300,7.81176220703125,-0.09748154878616333,0.03798466548323631,-0.22351405024528503
1701290503859837200,7.821837158203125,-0.1368907392024994,0.040470462292432785,-0.2628422677516937
1701290503869913300,7.831913330078125,-0.18437862396240234,0.026334401220083237,-0.3067687153816223
1701290503879988500,7.841988525390625,-0.2372322529554367,-0.005991047248244286,-0.36054301261901855
1701290503890063400,7.8520634765625,-0.2895876169204712,-0.022896792739629745,-0.4025815427303314
1701290503900139300,7.86213916015625,-0.33145543932914734,0.019038937985897064,-0.4067155718803406
1701290503910214400,7.87221435546875,-0.3522065281867981,0.06864617019891739,-0.36189162731170654
1701290503920289300,7.882289306640625,-0.3606463372707367,0.07832197099924088,-0.3267379105091095
1701290503930365400,7.892365478515625,-0.34016236662864685,0.04180097579956055,-0.3611485958099365
1701290503940440600,7.902440673828125,-0.29712143540382385,-0.039567116647958755,-0.44765526056289673
1701290503950515500,7.912515380859375,-0.2281964123249054,-0.15964798629283905,-0.5284534692764282
1701290503960591600,7.922591552734375,-0.1501801759004593,-0.3590015769004822,-0.5483797788619995
1701290503970666800,7.932666748046875,-0.07161692529916763,-0.580035924911499,-0.5139466524124146
1701290503980741400,7.942741455078125,-0.037876807153224945,-0.6284546256065369,-0.5064184665679932
1701290503990817500,7.952817626953125,-0.06603653728961945,-0.43332186341285706,-0.5229364633560181
1701290504000892700,7.962892578125,-0.0836605429649353,-0.15757311880588531,-0.48695021867752075
1701290504010967600,7.972967529296875,-0.0569828599691391,0.06325460225343704,-0.3610849678516388
1701290504021043500,7.98304345703125,-0.04846394062042236,0.19279395043849945,-0.16908542811870575
1701290504031118600,7.99311865234375,-0.05866784229874611,0.26358211040496826,0.026731213554739952
1701290504041193700,8.00319384765625,-0.07369126379489899,0.3544084131717682,0.18702873587608337
1701290504051269600,8.01326953125,-0.11577693372964859,0.4884876608848572,0.23359118402004242
1701290504061344500,8.023344482421875,-0.1638999879360199,0.5494506359100342,0.1299063265323639
1701290504071419600,8.033419677734376,-0.2011038213968277,0.4729406535625458,-0.07675337046384811
1701290504081495600,8.04349560546875,-0.2105708122253418,0.32566598057746887,-0.32949161529541016
1701290504091570700,8.05357080078125,-0.19612076878547668,0.17302849888801575,-0.5671393275260925
1701290504101645800,8.063645751953125,-0.17649540305137634,-0.004807538352906704,-0.7480909824371338
1701290504111721500,8.073721435546876,-0.16771017014980316,-0.21457301080226898,-0.8232816457748413
1701290504121796600,8.083796630859375,-0.18549290299415588,-0.4471237063407898,-0.800072193145752
1701290504131871700,8.093871826171876,-0.19778285920619965,-0.6194262504577637,-0.6782128214836121
1701290504141947400,8.103947509765625,-0.1911097764968872,-0.6155193448066711,-0.4909028708934784
1701290504152022500,8.1140224609375,-0.14758066833019257,-0.37134265899658203,-0.30301713943481445
1701290504162097700,8.12409765625,-0.05705955624580383,0.02436073310673237,-0.19597749412059784
1701290504172173600,8.134173583984374,0.04095914959907532,0.3834501802921295,-0.190267413854599
1701290504182248700,8.144248779296875,0.12338265776634216,0.567101776599884,-0.25427383184432983
1701290504192323600,8.154323486328124,0.181094691157341,0.5134902000427246,-0.33566322922706604
1701290504202399500,8.1643994140625,0.22235503792762756,0.2304619699716568,-0.4171953797340393
1701290504212474600,8.174474609375,0.22244319319725037,-0.15730759501457214,-0.5030748248100281
1701290504222549800,8.1845498046875,0.15862026810646057,-0.48303109407424927,-0.5823553204536438
1701290504232625700,8.194625732421875,0.07843488454818726,-0.6620583534240723,-0.6353572607040405
1701290504242700500,8.204700439453125,0.014890000224113464,-0.7213858962059021,-0.6626133918762207
1701290504252776700,8.214776611328125,-0.03236033767461777,-0.6564502716064453,-0.6652389764785767
1701290504262851800,8.224851806640626,-0.05751416087150574,-0.4964078962802887,-0.6284005641937256
1701290504272926500,8.234926513671875,-0.07441297918558121,-0.2626180350780487,-0.5629355311393738
1701290504283001600,8.245001708984375,-0.10117854923009872,0.0029113676864653826,-0.5080901384353638
1701290504293077800,8.255077880859375,-0.11309299618005753,0.16308559477329254,-0.5083287358283997
1701290504303152600,8.265152587890626,-0.10971531271934509,0.2255854606628418,-0.5374887585639954
1701290504313228500,8.275228515625,-0.0904792994260788,0.1804928183555603,-0.5930545330047607
1701290504323303700,8.2853037109375,-0.06710793077945709,0.06271238625049591,-0.66303950548172
1701290504333378600,8.295378662109375,-0.03575054183602333,-0.06483358889818192,-0.7246671915054321
1701290504343453700,8.30545361328125,-0.0017182715237140656,-0.18184037506580353,-0.758004367351532
1701290504353529600,8.315529541015625,0.02912539429962635,-0.26405879855155945,-0.7522082328796387
1701290504363604500,8.3256044921875,0.046014364808797836,-0.2842293381690979,-0.715951681137085
1701290504373680600,8.3356806640625,0.050508446991443634,-0.23326921463012695,-0.6473335027694702
1701290504383755800,8.345755859375,0.04426386579871178,-0.12997478246688843,-0.5763850212097168
1701290504393830700,8.35583056640625,0.030432740226387978,-0.009543171152472496,-0.5054445266723633
1701290504403905500,8.365905517578126,0.0055028898641467094,0.08728963136672974,-0.4481556713581085
1701290504413981700,8.375981689453125,-0.04162494093179703,0.1718583106994629,-0.4211650788784027
1701290504424056600,8.386056640625,-0.08803798258304596,0.25239551067352295,-0.40529635548591614
1701290504434132500,8.396132568359375,-0.12301700562238693,0.34647566080093384,-0.3927110731601715
1701290504444207600,8.40620751953125,-0.14336435496807098,0.3991444706916809,-0.3727101981639862
1701290504454282500,8.416282470703125,-0.1505919098854065,0.3800690472126007,-0.34509241580963135
1701290504464357600,8.426357666015624,-0.15264520049095154,0.32284650206565857,-0.31977319717407227
1701290504474433500,8.43643359375,-0.163592129945755,0.29215356707572937,-0.3021148443222046
1701290504484508400,8.44650830078125,-0.18571846187114716,0.3071221113204956,-0.30547896027565
1701290504494584600,8.45658447265625,-0.20326097309589386,0.3329997956752777,-0.3110862374305725
1701290504504659700,8.46665966796875,-0.2196119874715805,0.34563568234443665,-0.31488311290740967
1701290504514734600,8.476734619140625,-0.22498971223831177,0.3481558561325073,-0.30557137727737427
1701290504524810500,8.486810546875,-0.22682435810565948,0.3571527898311615,-0.2996183931827545
1701290504534885600,8.4968857421875,-0.22552527487277985,0.3571799695491791,-0.2986176013946533
1701290504544960500,8.50696044921875,-0.2235683798789978,0.3378472924232483,-0.3097975254058838
1701290504555036700,8.51703662109375,-0.2085380256175995,0.3068576753139496,-0.3243570327758789
1701290504565111600,8.527111572265625,-0.19416974484920502,0.297596275806427,-0.3438716232776642
1701290504575186400,8.5371865234375,-0.17819823324680328,0.31701523065567017,-0.34674888849258423
1701290504585262600,8.5472626953125,-0.16798341274261475,0.3677061200141907,-0.3323574364185333
1701290504595337700,8.557337646484376,-0.17113685607910156,0.4391765594482422,-0.30495989322662354
1701290504605412600,8.56741259765625,-0.184213787317276,0.48953455686569214,-0.27788782119750977
1701290504615488500,8.577488525390624,-0.20524156093597412,0.5004708170890808,-0.25006604194641113
1701290504625563600,8.587563720703125,-0.23243564367294312,0.5063209533691406,-0.2126568704843521
1701290504635638800,8.597638671875,-0.2691579759120941,0.5001333951950073,-0.1731605976819992
1701290504645714400,8.60771435546875,-0.30207276344299316,0.4531850516796112,-0.14085938036441803
1701290504655789600,8.61778955078125,-0.3194078207015991,0.37011998891830444,-0.128774493932724
1701290504665864700,8.62786474609375,-0.3203604221343994,0.28670498728752136,-0.13192927837371826
1701290504675940600,8.637940673828124,-0.316956102848053,0.2292579561471939,-0.13935309648513794
1701290504686015500,8.648015380859375,-0.305107444524765,0.20589324831962585,-0.1456219106912613
1701290504696090600,8.658090576171874,-0.27428027987480164,0.2276637852191925,-0.1618083417415619
1701290504706166500,8.66816650390625,-0.23851190507411957,0.2934422791004181,-0.18660476803779602
1701290504716241700,8.67824169921875,-0.20566047728061676,0.36185649037361145,-0.21314343810081482
1701290504726316800,8.68831689453125,-0.17965364456176758,0.407320111989975,-0.21109360456466675
1701290504736392400,8.698392333984375,-0.16290315985679626,0.43180227279663086,-0.1782887727022171
1701290504746467600,8.708467529296875,-0.1489572525024414,0.44616177678108215,-0.1303580105304718
1701290504756542700,8.718542724609375,-0.13999678194522858,0.48016661405563354,-0.08882707357406616
1701290504766618600,8.72861865234375,-0.14667199552059174,0.5409876108169556,-0.06547807902097702
1701290504776693500,8.738693603515625,-0.1576218456029892,0.5987017750740051,-0.0476551353931427
1701290504786768600,8.7487685546875,-0.17463013529777527,0.6371996402740479,-0.025901105254888535
1701290504796844800,8.7588447265625,-0.19247303903102875,0.6686316132545471,0.00033582461765035987
1701290504806919700,8.768919677734376,-0.19156064093112946,0.7078673839569092,0.014794658869504929
1701290504816994600,8.77899462890625,-0.18278446793556213,0.8092222809791565,0.022159097716212273
1701290504827070700,8.78907080078125,-0.19500170648097992,0.9375898241996765,0.04321804270148277
1701290504837145600,8.7991455078125,-0.18892838060855865,0.9710820317268372,0.09752842038869858
1701290504847220700,8.809220703125,-0.14608503878116608,0.8207976818084717,0.16642306745052338
1701290504857296600,8.819296630859375,-0.10426595062017441,0.559180736541748,0.21038946509361267
1701290504867371500,8.82937158203125,-0.0818229615688324,0.3371029198169708,0.2100893259048462
1701290504877446700,8.83944677734375,-0.059842560440301895,0.26417145133018494,0.16981779038906097
1701290504887522800,8.849522705078124,-0.027093136683106422,0.2824503481388092,0.13759967684745789
1701290504897597400,8.859597412109375,0.032460737973451614,0.2955312430858612,0.19089938700199127
1701290504907672600,8.869672607421874,0.11972746253013611,0.29397010803222656,0.3155941665172577
1701290504917748700,8.879748779296875,0.22274039685726166,0.2970833480358124,0.4712953567504883
1701290504927823600,8.88982373046875,0.3315321207046509,0.26584047079086304,0.6095373630523682
1701290504937898800,8.899898681640625,0.4291953146457672,0.2119564563035965,0.7400341629981995
1701290504947975000,8.909974853515624,0.5140998363494873,0.15830282866954803,0.875978410243988
1701290504958050000,8.920050048828125,0.5774739980697632,0.1185908317565918,1.0469751358032227
1701290504968125000,8.930125,0.6202664375305176,0.07695869356393814,1.2374542951583862
1701290504978200800,8.940200927734375,0.6768738031387329,0.03840145096182823,1.4082214832305908
1701290504988276000,8.95027587890625,0.7356881499290466,0.05150287225842476,1.5536980628967285
1701290504998350800,8.960350830078125,0.7805557250976562,0.13178199529647827,1.6792048215866089
1701290505008427000,8.970427001953125,0.820249617099762,0.25554150342941284,1.7949053049087524
1701290505018502000,8.980501953125,0.8444817066192627,0.3802322745323181,1.8652900457382202
1701290505028576800,8.99057666015625,0.8696120977401733,0.4133537709712982,1.8800444602966309
1701290505038653000,9.00065283203125,0.8868305087089539,0.3345564007759094,1.8423281908035278
1701290505048728000,9.01072802734375,0.8835875988006592,0.1758597046136856,1.743370532989502
1701290505058803000,9.020802978515626,0.8648221492767334,-0.05099048092961311,1.5835909843444824
1701290505068878800,9.03087890625,0.8465046286582947,-0.3652416169643402,1.345432996749878
1701290505078954000,9.0409541015625,0.8325976133346558,-0.711601972579956,1.0528093576431274
1701290505089028900,9.05102880859375,0.8211590647697449,-0.9276048541069031,0.8021782040596008
1701290505099104800,9.061104736328126,0.7758512496948242,-0.9378196597099304,0.6378496885299683
1701290505109180000,9.071179931640625,0.7119713425636292,-0.7963325381278992,0.5578542351722717
1701290505119254800,9.0812548828125,0.6618048548698425,-0.5214501619338989,0.5604457259178162
1701290505129331000,9.0913310546875,0.6376276016235352,-0.2130986899137497,0.6426551342010498
1701290505139406000,9.101406005859374,0.6202731132507324,0.09587539732456207,0.7905822396278381
1701290505149481000,9.11148095703125,0.5907847285270691,0.35470321774482727,0.9689629077911377
1701290505159556900,9.121556884765624,0.5582624673843384,0.5129469037055969,1.1137871742248535
1701290505169632000,9.131632080078125,0.53841233253479,0.5692581534385681,1.1579301357269287
1701290505179707100,9.14170703125,0.5469909310340881,0.5343888401985168,1.0639901161193848
1701290505189782800,9.15178271484375,0.5717577934265137,0.3837364912033081,0.8442574739456177
1701290505199858000,9.16185791015625,0.5726536512374878,0.1582343727350235,0.5653150677680969
1701290505209933000,9.17193310546875,0.5122004151344299,-0.08944093436002731,0.32281720638275146
1701290505220009000,9.182009033203125,0.43894699215888977,-0.2983779013156891,0.1626344472169876
1701290505230083800,9.192083740234375,0.38217294216156006,-0.40573737025260925,0.08930990844964981
1701290505240159000,9.202158935546874,0.3559490442276001,-0.404256135225296,0.08383657783269882
1701290505250235000,9.21223486328125,0.33719080686569214,-0.3397706151008606,0.09672121703624725
1701290505260310000,9.22231005859375,0.33488982915878296,-0.2702421247959137,0.10576131939888
1701290505270385200,9.23238525390625,0.33216968178749084,-0.2599373161792755,0.10122089087963104
1701290505280460800,9.242460693359375,0.31150782108306885,-0.33006367087364197,0.08477587252855301
1701290505290536000,9.252535888671876,0.2799147367477417,-0.4686071574687958,0.05288878083229065
1701290505300611000,9.262611083984375,0.23808659613132477,-0.6458413004875183,0.007852064445614815
1701290505310686700,9.272686767578126,0.1804264932870865,-0.8246038556098938,-0.04869430139660835
1701290505320761900,9.282761962890625,0.11924117058515549,-0.9607049822807312,-0.09515421092510223
1701290505330837000,9.2928369140625,0.06023058295249939,-1.0298843383789062,-0.11906860023736954
1701290505340913200,9.3029130859375,0.01239168830215931,-1.0296574831008911,-0.135892853140831
1701290505350988000,9.312988037109376,-0.026744795963168144,-0.9769515991210938,-0.1269342452287674
1701290505361063000,9.32306298828125,-0.045651376247406006,-0.8913911581039429,-0.0920359194278717
1701290505371139000,9.33313916015625,-0.044674526900053024,-0.7896983623504639,-0.03370629623532295
1701290505381214000,9.3432138671875,-0.03345835953950882,-0.6623262763023376,0.016696954146027565
1701290505391289000,9.3532890625,-0.02514902874827385,-0.5199622511863708,0.035116974264383316
1701290505401365000,9.363364990234375,-0.027699271216988564,-0.3833857476711273,0.04427531734108925
1701290505411439900,9.37343994140625,-0.024468058720231056,-0.27402275800704956,0.06680645793676376
1701290505421515000,9.383514892578125,-0.01954573765397072,-0.19764676690101624,0.10255619883537292
1701290505431591000,9.3935908203125,-0.023009179159998894,-0.13283315300941467,0.14186419546604156
1701290505441665800,9.403665771484375,-0.03105059452354908,-0.05855279043316841,0.16880393028259277
1701290505451741000,9.413740966796874,-0.03277472406625748,0.003869839245453477,0.16804705560207367
1701290505461817000,9.423817138671875,-0.036379843950271606,0.02791125886142254,0.14761102199554443
1701290505471892000,9.43389208984375,-0.03449352830648422,0.031124895438551903,0.11391671746969223
1701290505481966800,9.443966796875,-0.0370728000998497,0.017486315220594406,0.08930564671754837
1701290505492043000,9.45404296875,-0.042687807232141495,-0.022170016542077065,0.07384732365608215
1701290505502118000,9.464117919921875,-0.053337521851062775,-0.06379442662000656,0.048048753291368484
1701290505512193000,9.474193115234375,-0.05915573239326477,-0.09596993774175644,0.011475827544927597
1701290505522269000,9.48426904296875,-0.05955120921134949,-0.11405892670154572,-0.03341654688119888
1701290505532343800,9.49434375,-0.05545686557888985,-0.14829066395759583,-0.08589360117912292
1701290505542419000,9.5044189453125,-0.03803366795182228,-0.22283387184143066,-0.13297562301158905
1701290505552495000,9.5144951171875,-0.010506702587008476,-0.33703023195266724,-0.16195720434188843
1701290505562570000,9.524570068359376,0.02636156603693962,-0.47069719433784485,-0.17672710120677948
1701290505572644900,9.534644775390625,0.06703761965036392,-0.5927858352661133,-0.19241605699062347
1701290505582721000,9.544720947265626,0.11359900236129761,-0.6739898920059204,-0.20547112822532654
1701290505592796000,9.5547958984375,0.13707716763019562,-0.7139561772346497,-0.22321391105651855
1701290505602871000,9.56487109375,0.1455145925283432,-0.7179543972015381,-0.2537443935871124
1701290505612947000,9.574947021484375,0.15487293899059296,-0.6541298627853394,-0.27576154470443726
1701290505623021800,9.585021728515626,0.15497280657291412,-0.5291874408721924,-0.29672273993492126
1701290505633097000,9.595096923828125,0.14899428188800812,-0.35600337386131287,-0.30369678139686584
1701290505643172900,9.6051728515625,0.13626302778720856,-0.20363888144493103,-0.28265753388404846
1701290505653247700,9.615247802734375,0.11058297008275986,-0.11016378551721573,-0.2455008327960968
1701290505663324000,9.625323974609374,0.0861750990152359,-0.06324262171983719,-0.21644149720668793
1701290505673399000,9.63539892578125,0.0673697218298912,-0.025293372571468353,-0.2121327668428421
1701290505683474000,9.645473876953124,0.03599874675273895,0.02009674534201622,-0.23741334676742554
1701290505693548800,9.655548828125,-0.022335398942232132,0.06029583141207695,-0.2847166955471039
1701290505703625000,9.665625,-0.09031258523464203,0.05250954627990723,-0.3309859037399292
1701290505713700000,9.6757001953125,-0.1490217000246048,0.017648234963417053,-0.36488208174705505
1701290505723775000,9.68577490234375,-0.1996888816356659,0.01672012358903885,-0.40232452750205994
1701290505733851000,9.695850830078125,-0.2533015012741089,0.09894921630620956,-0.4274967312812805
1701290505743926000,9.705926025390625,-0.3292785584926605,0.21666572988033295,-0.46604201197624207
1701290505754001000,9.7160009765625,-0.43159401416778564,0.3075388967990875,-0.5412006974220276
1701290505764077000,9.7260771484375,-0.5238352417945862,0.43834513425827026,-0.5861428380012512
1701290505774152000,9.73615185546875,-0.5731056332588196,0.5976120233535767,-0.500825822353363
1701290505784227800,9.746227783203125,-0.5855324268341064,0.6667306423187256,-0.3924309015274048
1701290505794303000,9.756302978515626,-0.5708126425743103,0.5459685325622559,-0.419876366853714
1701290505804378000,9.766378173828125,-0.5488404631614685,0.23879846930503845,-0.5337361097335815
1701290505814453800,9.776453857421876,-0.5133245587348938,-0.16523130238056183,-0.5345047116279602
1701290505824529000,9.78652880859375,-0.42922061681747437,-0.5824549198150635,-0.3164125680923462
1701290505834604000,9.79660400390625,-0.3310452997684479,-0.823164165019989,-0.08079950511455536
1701290505844680000,9.806679931640625,-0.2902344763278961,-0.683517575263977,-0.10289681702852249
1701290505854754800,9.8167548828125,-0.3031785190105438,-0.23455259203910828,-0.1920488029718399
1701290505864830000,9.826829833984375,-0.29039081931114197,0.3065607249736786,-0.1445033848285675
1701290505874905900,9.83690576171875,-0.2449362426996231,0.740222692489624,-0.038003575056791306
1701290505884981000,9.84698095703125,-0.21770063042640686,0.9610693454742432,0.0595695860683918
1701290505895056100,9.85705615234375,-0.2236940711736679,0.9971804618835449,0.12316134572029114
1701290505905132000,9.867132080078125,-0.2662668526172638,0.9247562885284424,0.12098580598831177
1701290505915207000,9.87720703125,-0.3009342849254608,0.7730160355567932,0.020790498703718185
1701290505925282000,9.887281982421875,-0.3188328444957733,0.530487060546875,-0.18458501994609833
1701290505935358700,9.897358642578125,-0.31501707434654236,0.22281603515148163,-0.4590293765068054
1701290505945433600,9.90743359375,-0.3130412697792053,-0.14419180154800415,-0.7227773666381836
1701290505955508700,9.9175087890625,-0.325763463973999,-0.5028160214424133,-0.8897274732589722
1701290505965584600,9.927584716796876,-0.36744964122772217,-0.7657778263092041,-0.9198933839797974
1701290505975659500,9.937659423828125,-0.38871312141418457,-0.7959179282188416,-0.8206648230552673
1701290505985734700,9.947734619140626,-0.34865304827690125,-0.5028548836708069,-0.6312403082847595
1701290505995810800,9.957810791015625,-0.2268882691860199,0.02310558594763279,-0.4230588376522064
1701290506005885700,9.9678857421875,-0.06999612599611282,0.47287142276763916,-0.32706519961357117
1701290506015960600,9.977960693359375,0.03508661314845085,0.610365092754364,-0.3897906541824341
1701290506026036700,9.98803662109375,0.06250785291194916,0.43592163920402527,-0.5339393019676208
1701290506036111600,9.998111572265625,0.07790278643369675,0.051477305591106415,-0.6638080477714539
1701290506046186800,10.008186767578126,0.05356628820300102,-0.3811124563217163,-0.7484323978424072
1701290506056262700,10.0182626953125,-0.021585186943411827,-0.7146068215370178,-0.7793107032775879
1701290506066337500,10.028337646484376,-0.12563090026378632,-0.8941709995269775,-0.8015124201774597
1701290506076412700,10.03841259765625,-0.2107870727777481,-0.9184718132019043,-0.8060453534126282
1701290506086488800,10.04848876953125,-0.23225107789039612,-0.8153691291809082,-0.7763966917991638
1701290506096563500,10.0585634765625,-0.19927528500556946,-0.603795051574707,-0.7241382598876953
1701290506106638600,10.068638671875,-0.17921316623687744,-0.2207012176513672,-0.6278817653656006
1701290506116714800,10.07871484375,-0.1964789628982544,0.22771784663200378,-0.509053647518158
1701290506126790000,10.088789794921874,-0.2025299370288849,0.5533350706100464,-0.4108133614063263
1701290506136864800,10.09886474609375,-0.18315677344799042,0.7000651359558105,-0.34036609530448914
1701290506146940700,10.108940673828124,-0.1522694230079651,0.7141658067703247,-0.2936697006225586
1701290506157015800,10.119015869140625,-0.10719436407089233,0.6261890530586243,-0.2694397270679474
1701290506167090700,10.129090576171874,-0.0483773872256279,0.4470941424369812,-0.2833147943019867
1701290506177166600,10.13916650390625,0.0027593011036515236,0.24541881680488586,-0.31618034839630127
1701290506187241700,10.14924169921875,0.03455344960093498,0.09627220779657364,-0.36407649517059326
1701290506197316600,10.159316650390625,0.051060788333415985,0.028332572430372238,-0.39640727639198303
1701290506207392800,10.169392822265625,0.0665111169219017,0.029324065893888474,-0.41562169790267944
1701290506217468000,10.179468017578126,0.07366356998682022,0.044862546026706696,-0.4203821122646332
1701290506227542500,10.18954248046875,0.06208360940217972,0.0428614467382431,-0.42233845591545105
1701290506237618700,10.19961865234375,0.048112399876117706,-0.0031353395897895098,-0.4246327877044678
1701290506247693800,10.20969384765625,0.02220943197607994,-0.08546536415815353,-0.4428008496761322
1701290506257768700,10.219768798828126,0.0018964370246976614,-0.17164765298366547,-0.4721720516681671
1701290506267844600,10.2298447265625,-0.025407887995243073,-0.22429408133029938,-0.511892557144165
1701290506277919700,10.239919677734376,-0.04917047545313835,-0.25465917587280273,-0.5502666234970093
1701290506287994600,10.24999462890625,-0.07454986870288849,-0.2664777636528015,-0.5744060277938843
1701290506298070800,10.26007080078125,-0.09239144623279572,-0.2583774924278259,-0.5812274217605591
1701290506308145700,10.270145751953125,-0.11049269139766693,-0.20810632407665253,-0.5685614347457886
1701290506318220500,10.280220458984376,-0.13007144629955292,-0.10096496343612671,-0.534164309501648
1701290506328296700,10.290296630859375,-0.14970053732395172,0.0338013730943203,-0.4926251471042633
1701290506338371800,10.300371826171874,-0.16166932880878448,0.16180141270160675,-0.44269779324531555
1701290506348446700,10.31044677734375,-0.17877507209777832,0.24584677815437317,-0.3937731385231018
1701290506358522600,10.320522705078124,-0.19746753573417664,0.27343127131462097,-0.3686355650424957
1701290506368597800,10.33059765625,-0.21429631114006042,0.26365986466407776,-0.3583962321281433
1701290506378672600,10.340672607421874,-0.22582806646823883,0.2315376251935959,-0.3506048917770386
1701290506388748500,10.35074853515625,-0.22762943804264069,0.21736933290958405,-0.34429851174354553
1701290506398823700,10.36082373046875,-0.22456413507461548,0.23041163384914398,-0.3306700587272644
1701290506408898600,10.370898681640625,-0.21519753336906433,0.24848145246505737,-0.3268580138683319
1701290506418974700,10.380974609375,-0.2109021097421646,0.2630630433559418,-0.34027981758117676
1701290506429049900,10.3910498046875,-0.21096469461917877,0.2911410331726074,-0.3590516448020935
1701290506439124500,10.40112451171875,-0.20236748456954956,0.330809086561203,-0.3657201826572418
1701290506449200600,10.41120068359375,-0.1935979574918747,0.35716530680656433,-0.34141406416893005
1701290506459275800,10.42127587890625,-0.19824038445949554,0.3665710687637329,-0.29927513003349304
1701290506469351700,10.4313515625,-0.20844002068042755,0.33491674065589905,-0.2595183849334717
1701290506479426600,10.441426513671875,-0.23675821721553802,0.27317801117897034,-0.25408899784088135
1701290506489501700,10.451501708984376,-0.27755704522132874,0.19323337078094482,-0.2617354691028595
1701290506499577900,10.461577880859375,-0.30808591842651367,0.11385279893875122,-0.2647549510002136
1701290506509652700,10.47165283203125,-0.31618326902389526,0.06861181557178497,-0.24369041621685028
1701290506519727600,10.4817275390625,-0.30366748571395874,0.07918909192085266,-0.23015889525413513
1701290506529803800,10.4918037109375,-0.27949556708335876,0.12303590774536133,-0.236458882689476
1701290506539878700,10.501878662109375,-0.24708569049835205,0.17710500955581665,-0.2534903287887573
1701290506549953800,10.511953857421876,-0.2177072912454605,0.23596112430095673,-0.2649288773536682
1701290506560029700,10.52202978515625,-0.1964411586523056,0.31951993703842163,-0.2594478130340576
1701290506570104600,10.5321044921875,-0.1720053106546402,0.4227864146232605,-0.2376975119113922
1701290506580179700,10.5421796875,-0.15634194016456604,0.5396155714988708,-0.19448453187942505
1701290506590255600,10.552255615234374,-0.15384255349636078,0.641970694065094,-0.12557204067707062
1701290506600330500,10.56233056640625,-0.16317880153656006,0.7270482778549194,-0.04169684648513794
1701290506610405600,10.572405517578124,-0.1787138134241104,0.7838923931121826,0.03749411180615425
1701290506620481800,10.582481689453125,-0.1961418092250824,0.8265077471733093,0.10699808597564697
1701290506630556700,10.592556640625,-0.20204870402812958,0.8608377575874329,0.16146957874298096
1701290506640631600,10.602631591796875,-0.17908640205860138,0.8902691602706909,0.20244471728801727
1701290506650707700,10.612707763671875,-0.1574213206768036,0.9144914150238037,0.22526001930236816
1701290506660782600,10.622782470703125,-0.13429628312587738,0.8659521341323853,0.22523604333400726
1701290506670857700,10.632857666015624,-0.08708483725786209,0.7107510566711426,0.20951460301876068
1701290506680933600,10.64293359375,-0.03304290398955345,0.5044516921043396,0.18845327198505402
1701290506691008800,10.6530087890625,0.018690064549446106,0.34785863757133484,0.1752738207578659
1701290506701083600,10.663083740234375,0.046059370040893555,0.26682478189468384,0.19662810862064362
1701290506711159800,10.673159912109375,0.0897623747587204,0.20077012479305267,0.26697710156440735
1701290506721234700,10.683234619140626,0.15731851756572723,0.12870071828365326,0.3620341122150421
1701290506731309600,10.6933095703125,0.22787337005138397,0.09825067222118378,0.4454251527786255
1701290506741385700,10.7033857421875,0.30349862575531006,0.13064002990722656,0.5029478073120117
1701290506751460900,10.7134609375,0.3754340708255768,0.2252829223871231,0.5559859871864319
1701290506761535700,10.72353564453125,0.4478398263454437,0.3706076145172119,0.6411179304122925
1701290506771611600,10.733611572265625,0.5245566964149475,0.5472170114517212,0.7799674272537231
1701290506781686800,10.743686767578126,0.6188344955444336,0.7114930152893066,0.9832038879394531
1701290506791761700,10.75376171875,0.703911542892456,0.8086888194084167,1.2235318422317505
1701290506801837600,10.763837646484374,0.7684881687164307,0.8117048740386963,1.4378914833068848
1701290506811912700,10.77391259765625,0.823312520980835,0.7581425905227661,1.5913289785385132
1701290506821987600,10.783987548828126,0.8715194463729858,0.7167253494262695,1.687570333480835
1701290506832063700,10.794063720703125,0.908423662185669,0.6961287260055542,1.7764767408370972
1701290506842139000,10.804138916015624,0.9357407689094543,0.6772815585136414,1.8780755996704102
1701290506852213500,10.814213623046875,0.9445241689682007,0.6415504217147827,1.9688923358917236
1701290506862289700,10.82428955078125,0.9320051670074463,0.5336325168609619,1.9799180030822754
1701290506872364800,10.83436474609375,0.9221680164337158,0.30185946822166443,1.8904763460159302
1701290506882439700,10.844439697265624,0.9145380258560181,0.03683710843324661,1.7152200937271118
1701290506892515600,10.854515625,0.9190302491188049,-0.1817639321088791,1.5133413076400757
1701290506902590700,10.8645908203125,0.9367783665657043,-0.34206706285476685,1.3270143270492554
1701290506912665600,10.87466552734375,0.9562076926231384,-0.49131059646606445,1.1590145826339722
1701290506922741800,10.88474169921875,0.9533615708351135,-0.6263637542724609,1.0101041793823242
1701290506932816600,10.894816650390625,0.9273400902748108,-0.7048811912536621,0.9038859009742737
1701290506942890200,10.90489013671875,0.8635491728782654,-0.6826803088188171,0.8400568962097168
1701290506952966100,10.914966064453125,0.7798806428909302,-0.5779101848602295,0.8116425275802612
1701290506963041000,10.925041015625,0.7012079358100891,-0.4252130687236786,0.8052778840065002
1701290506973117200,10.9351171875,0.6369026899337769,-0.24964764714241028,0.8192275166511536
1701290506983192300,10.9451923828125,0.588767945766449,-0.07142331451177597,0.8366528153419495
1701290506993267000,10.955266845703125,0.5747902989387512,0.03984488546848297,0.8231492638587952
1701290507003343000,10.965343017578125,0.5901588797569275,0.055094942450523376,0.7439966797828674
1701290507013418200,10.975418212890625,0.6151718497276306,-0.029801838099956512,0.5969030857086182
1701290507023493000,10.9854931640625,0.6378808617591858,-0.1842673122882843,0.40055379271507263
1701290507033569000,10.995569091796876,0.6430037021636963,-0.3780210614204407,0.1930919587612152
1701290507043644200,11.00564404296875,0.6518145203590393,-0.5791640281677246,0.003644536016508937
1701290507053719000,11.015718994140625,0.6693306565284729,-0.748367965221405,-0.1344614028930664
1701290507063795200,11.025795166015625,0.6980714797973633,-0.8653305172920227,-0.21400390565395355
1701290507073870000,11.0358701171875,0.7125471234321594,-0.9180723428726196,-0.22360965609550476
1701290507083945000,11.045945068359375,0.6841522455215454,-0.9021881818771362,-0.19566696882247925
1701290507094021000,11.056021240234376,0.6247214078903198,-0.8382435441017151,-0.15828391909599304
1701290507104096300,11.06609619140625,0.5555282235145569,-0.7771506309509277,-0.12974095344543457
1701290507114171100,11.076171142578126,0.49084535241127014,-0.7686801552772522,-0.12932921946048737
1701290507124247000,11.0862470703125,0.43784284591674805,-0.7685129046440125,-0.15025074779987335
1701290507134322200,11.096322265625,0.39412999153137207,-0.7753303647041321,-0.1866990476846695
1701290507144397000,11.10639697265625,0.3480125665664673,-0.7636100649833679,-0.20900914072990417
1701290507154473000,11.116472900390624,0.28800782561302185,-0.7283859848976135,-0.21604840457439423
1701290507164548000,11.126548095703125,0.21154020726680756,-0.6752372980117798,-0.20532359182834625
1701290507174623000,11.136623046875,0.11102372407913208,-0.6131179928779602,-0.19684568047523499
1701290507184699100,11.14669921875,0.010671552270650864,-0.5492807030677795,-0.17378777265548706
1701290507194774300,11.156774169921874,-0.06467965990304947,-0.47660836577415466,-0.1489359438419342
1701290507204849000,11.166848876953125,-0.11735512316226959,-0.38272660970687866,-0.11037657409906387
1701290507214925000,11.176925048828124,-0.160419762134552,-0.29570701718330383,-0.07755071669816971
1701290507225000200,11.187000244140625,-0.2084845006465912,-0.23371528089046478,-0.0547599196434021
1701290507235075000,11.197074951171874,-0.26170778274536133,-0.1919182986021042,-0.04421486705541611
1701290507245151000,11.20715087890625,-0.3112335205078125,-0.160176083445549,-0.051309261471033096
1701290507255226000,11.21722607421875,-0.3562318682670593,-0.12472142279148102,-0.06892260909080505
1701290507265301200,11.22730126953125,-0.3984754681587219,-0.07197379320859909,-0.09773801267147064
1701290507275377200,11.237377197265625,-0.44810107350349426,-0.013648168183863163,-0.14050118625164032
1701290507285452000,11.2474521484375,-0.49749553203582764,0.030767234042286873,-0.18426331877708435
1701290507295527200,11.257527099609375,-0.5380631685256958,0.06972502171993256,-0.21056309342384338
1701290507305603000,11.26760302734375,-0.5632532238960266,0.10315008461475372,-0.20071366429328918
1701290507315678200,11.27767822265625,-0.5620513558387756,0.12081883102655411,-0.17265859246253967
1701290507325753000,11.287753173828126,-0.5385524034500122,0.1290767639875412,-0.1379842311143875
1701290507335829000,11.2978291015625,-0.5100882649421692,0.1121893897652626,-0.11714526265859604
1701290507345904000,11.307904052734376,-0.4657477140426636,0.05495432764291763,-0.12096903473138809
1701290507355979300,11.317979248046875,-0.40509024262428284,-0.03658118098974228,-0.14244236052036285
1701290507366055000,11.328054931640626,-0.3175606429576874,-0.18959923088550568,-0.1588391810655594
1701290507376130000,11.338130126953125,-0.2077188342809677,-0.38078489899635315,-0.19039390981197357
1701290507386206200,11.348206298828124,-0.0771871954202652,-0.5598699450492859,-0.24955683946609497
1701290507396281000,11.358281005859375,0.05935147404670715,-0.6454876661300659,-0.30623263120651245
1701290507406356200,11.368356201171874,0.2001543939113617,-0.6895430088043213,-0.3160722255706787
1701290507416432000,11.37843212890625,0.3226960301399231,-0.7598333954811096,-0.25458407402038574
1701290507426507000,11.388507080078124,0.3966706395149231,-0.7927074432373047,-0.14636945724487305
1701290507436582100,11.39858203125,0.4495098888874054,-0.7087603807449341,-0.08097367733716965
1701290507446658000,11.408657958984374,0.45513954758644104,-0.4285532236099243,-0.07195062190294266
1701290507456733200,11.418733154296875,0.36931172013282776,-0.016928650438785553,-0.09919475764036179
1701290507466808000,11.42880810546875,0.19758684933185577,0.26089736819267273,-0.1449345499277115
1701290507476884200,11.43888427734375,0.004548679105937481,0.32530832290649414,-0.1774488240480423
1701290507486959000,11.448958984375,-0.1476733535528183,0.2720240652561188,-0.2284078747034073
1701290507497034000,11.459033935546875,-0.24522973597049713,0.24218226969242096,-0.2926478385925293
1701290507507110100,11.469110107421875,-0.28839024901390076,0.32264623045921326,-0.28676146268844604
1701290507517185300,11.479185302734376,-0.3371489942073822,0.44985371828079224,-0.2357906848192215
1701290507527260200,11.48926025390625,-0.4089837670326233,0.436198890209198,-0.2689228057861328
1701290507537336000,11.499336181640626,-0.4767244756221771,0.08437640219926834,-0.420663058757782
1701290507547411200,11.5094111328125,-0.5196186900138855,-0.5397356748580933,-0.5617605447769165
1701290507557486000,11.519486083984376,-0.5180085301399231,-1.1894023418426514,-0.5764755606651306
1701290507567562000,11.52956201171875,-0.4645479619503021,-1.6539947986602783,-0.47216275334358215
1701290507577637000,11.53963720703125,-0.39887601137161255,-1.6560792922973633,-0.42642614245414734
1701290507587712000,11.5497119140625,-0.35781991481781006,-1.0876152515411377,-0.417553573846817
1701290507597788200,11.5597880859375,-0.3186970353126526,-0.20401811599731445,-0.3290966749191284
1701290507607863300,11.56986328125,-0.2641051411628723,0.6308999061584473,-0.18224570155143738
1701290507617938000,11.57993798828125,-0.2160595953464508,1.186670184135437,-0.052615273743867874
1701290507628014000,11.59001416015625,-0.1752181500196457,1.4401887655258179,0.00321949552744627
1701290507638089200,11.600089111328124,-0.15337277948856354,1.3887516260147095,-0.004269313532859087
1701290507648164000,11.6101640625,-0.15047898888587952,1.0710653066635132,-0.11192147433757782
1701290507658240000,11.620239990234374,-0.15701651573181152,0.5562096834182739,-0.35314714908599854
1701290507668315100,11.630315185546875,-0.17341066896915436,-0.01116530317813158,-0.6692630052566528
1701290507678390000,11.64039013671875,-0.21174155175685883,-0.523546576499939,-0.9354350566864014
1701290507688466200,11.650466064453125,-0.27738046646118164,-0.9399640560150146,-1.0718512535095215
1701290507698541000,11.660541015625,-0.35696929693222046,-1.2359459400177002,-1.073542833328247
1701290507708616000,11.670615966796875,-0.39283064007759094,-1.320026159286499,-0.9745987057685852
1701290507718692000,11.680692138671875,-0.35682177543640137,-1.1430511474609375,-0.8291538953781128
1701290507728767200,11.690767333984375,-0.23692172765731812,-0.7124403119087219,-0.6570399403572083
1701290507738842000,11.700842041015624,-0.058517903089523315,-0.20708288252353668,-0.49969345331192017
1701290507748918000,11.71091796875,0.09256482124328613,0.11285784095525742,-0.4365997016429901
1701290507758993200,11.7209931640625,0.15452300012111664,0.14499260485172272,-0.47599315643310547
1701290507769068000,11.731068115234375,0.1635654866695404,-0.05841217562556267,-0.5667710304260254
1701290507779144000,11.74114404296875,0.19859857857227325,-0.32176125049591064,-0.6522179841995239
1701290507789219000,11.751218994140626,0.18886952102184296,-0.4753425717353821,-0.6801460385322571
1701290507799295200,11.761295166015625,0.10335967689752579,-0.4672079384326935,-0.6498664021492004
1701290507809370000,11.7713701171875,-0.030255906283855438,-0.3172999322414398,-0.5693984627723694
1701290507819445200,11.7814453125,-0.11605177074670792,-0.08065516501665115,-0.4396016001701355
1701290507829521200,11.791521240234376,-0.09787489473819733,0.21090424060821533,-0.30444005131721497
1701290507839596000,11.801595947265625,-0.08311618864536285,0.5428560972213745,-0.20873616635799408
1701290507849671200,11.811671142578126,-0.11226475238800049,0.816517174243927,-0.1445382684469223
1701290507859747000,11.8217470703125,-0.10585799068212509,0.8424009680747986,-0.11989657580852509
1701290507869822000,11.831822021484374,-0.0641947016119957,0.6954629421234131,-0.14954794943332672
1701290507879897000,11.84189697265625,-0.01890391670167446,0.4788837730884552,-0.2260672152042389
1701290507889973200,11.85197314453125,0.011362642981112003,0.24394449591636658,-0.32123181223869324
1701290507900048100,11.862048095703125,0.016145413741469383,0.07182545214891434,-0.39673376083374023
1701290507910123000,11.872123046875,0.03055950626730919,0.019508453086018562,-0.44040587544441223
1701290507920199200,11.88219921875,0.07487211376428604,0.059240687638521194,-0.46145471930503845
1701290507930274000,11.892274169921874,0.12440690398216248,0.14068548381328583,-0.4586820900440216
1701290507940349400,11.902349365234375,0.1284642368555069,0.24141448736190796,-0.4305362105369568
1701290507950425000,11.912425048828124,0.11793675273656845,0.33842411637306213,-0.3822738826274872
1701290507960500200,11.922500244140625,0.08909658342599869,0.4211150109767914,-0.3229186534881592
1701290507970575400,11.932575439453124,0.030309703201055527,0.4491911232471466,-0.2591082751750946
1701290507980651300,11.9426513671875,-0.031036213040351868,0.37290647625923157,-0.23426416516304016
1701290507990726100,11.95272607421875,-0.08935438096523285,0.20384660363197327,-0.2618201673030853
1701290508000801300,11.96280126953125,-0.12811243534088135,0.03495638445019722,-0.30341872572898865
1701290508010877200,11.972877197265625,-0.14012861251831055,-0.022704513743519783,-0.3146463632583618
1701290508020952300,11.982952392578126,-0.1348036229610443,0.014091051183640957,-0.29508569836616516
1701290508031027200,11.993027099609375,-0.12055703997612,0.09836571663618088,-0.2693465054035187
1701290508041103000,12.00310302734375,-0.10974300652742386,0.20260663330554962,-0.25638091564178467
1701290508051178200,12.01317822265625,-0.11345678567886353,0.3035478889942169,-0.25921717286109924
1701290508061253400,12.02325341796875,-0.124534472823143,0.4146323502063751,-0.27549228072166443
1701290508071329000,12.0333291015625,-0.14322853088378906,0.5235756039619446,-0.2806636095046997
1701290508081404200,12.043404052734376,-0.16422170400619507,0.5906758308410645,-0.26781120896339417
1701290508091479300,12.053479248046875,-0.18080253899097443,0.5861257910728455,-0.24119770526885986
1701290508101555500,12.063555419921874,-0.18754033744335175,0.5132545232772827,-0.22662541270256042
1701290508111630000,12.073630126953125,-0.18566679954528809,0.40478742122650146,-0.24496208131313324
1701290508121705200,12.083705322265626,-0.18549422919750214,0.3083384037017822,-0.28067001700401306
1701290508131781400,12.093781494140625,-0.18880213797092438,0.2368447631597519,-0.31149718165397644
1701290508141856300,12.103856201171874,-0.20144736766815186,0.2037706971168518,-0.32155218720436096
1701290508151932200,12.11393212890625,-0.22286902368068695,0.20622454583644867,-0.31714892387390137
1701290508162007300,12.12400732421875,-0.24742470681667328,0.242459237575531,-0.31090354919433594
1701290508172082200,12.134082275390625,-0.2592214345932007,0.28480803966522217,-0.29967352747917175
1701290508182158300,12.144158447265625,-0.26748231053352356,0.3086923360824585,-0.28761979937553406
1701290508192233200,12.154233154296875,-0.2672599256038666,0.30684754252433777,-0.2697422504425049
1701290508202308000,12.16430810546875,-0.27109700441360474,0.29421430826187134,-0.2651834785938263
1701290508212384300,12.17438427734375,-0.28352493047714233,0.3004240095615387,-0.2748832404613495
1701290508222459400,12.18445947265625,-0.3033292591571808,0.3259213864803314,-0.2783690392971039
1701290508232534300,12.1945341796875,-0.3199945092201233,0.3733717203140259,-0.27070552110671997
1701290508242610200,12.204610107421875,-0.32610568404197693,0.43979576230049133,-0.2520221173763275
1701290508252685300,12.214685302734376,-0.3333769142627716,0.5272875428199768,-0.2204575389623642
1701290508262760200,12.22476025390625,-0.34016236662864685,0.6034238338470459,-0.18632273375988007
1701290508272836000,12.234836181640626,-0.34707221388816833,0.6606069803237915,-0.15680532157421112
1701290508282911200,12.2449111328125,-0.34626898169517517,0.6750162839889526,-0.11632181704044342
1701290508292986000,12.254986083984376,-0.3357151448726654,0.6766178607940674,-0.07027256488800049
1701290508303062300,12.265062255859375,-0.325654536485672,0.7090855240821838,-0.025749571621418
1701290508313137400,12.275137451171876,-0.3112633526325226,0.7709872722625732,0.0025691515766084194
1701290508323212000,12.2852119140625,-0.2987118661403656,0.8336522579193115,0.013966416008770466
