time,seconds_elapsed,z,y,x
1701290496076652000,0.038652099609375,-0.09391766041517258,0.10118665546178818,-0.07871407270431519
1701290496086727200,0.04872705078125,-0.10376038402318954,0.09470964223146439,-0.10299593955278397
1701290496096802000,0.058802001953125,-0.11585060507059097,0.08162126690149307,-0.15701869130134583
1701290496106878000,0.0688779296875,-0.12625646591186523,0.04604392498731613,-0.20973952114582062
1701290496116953000,0.078953125,-0.13362357020378113,0.007737015374004841,-0.24859771132469177
1701290496127028000,0.089028076171875,-0.13407780230045319,-0.03475647792220116,-0.2793288826942444
1701290496137104100,0.099104248046875,-0.08845625072717667,-0.23396705090999603,-0.29194745421409607
1701290496147179000,0.109178955078125,-0.11331963539123535,-0.17679794132709503,-0.22107474505901337
1701290496157254000,0.11925390625,-0.14959107339382172,-0.06793536990880966,-0.2247786670923233
1701290496167330000,0.129330078125,-0.1568412482738495,-0.05866319313645363,-0.2459382265806198
1701290496177405200,0.1394052734375,-0.17089980840682983,-0.05094721540808678,-0.22642391920089722
1701290496187480000,0.14947998046875,-0.22995425760746002,-0.015981726348400116,-0.20462454855442047
1701290496197555000,0.159554931640625,-0.30604287981987,0.024923361837863922,-0.18208754062652588
1701290496207631000,0.169631103515625,-0.35376957058906555,0.011723845265805721,-0.1950671523809433
1701290496217706000,0.1797060546875,-0.3780304491519928,-0.023726556450128555,-0.2345232218503952
1701290496227781000,0.189781005859375,-0.3973585069179535,-0.017818428575992584,-0.2814429700374603
1701290496237857000,0.19985693359375,-0.41127753257751465,0.01674594171345234,-0.3253808617591858
1701290496247932000,0.209931884765625,-0.43950730562210083,0.04145249351859093,-0.37536680698394775
1701290496258007000,0.220007080078125,-0.4762812852859497,0.05440450832247734,-0.42112550139427185
1701290496268083200,0.230083251953125,-0.538568913936615,0.06982673704624176,-0.4830586314201355
1701290496278157800,0.24015771484375,-0.6381943225860596,0.16854186356067657,-0.5888809561729431
1701290496288233000,0.25023291015625,-0.7777228951454163,0.28590989112854004,-0.7431456446647644
1701290496298309000,0.26030908203125,-0.9158504009246826,0.41005343198776245,-0.8113790154457092
1701290496308384300,0.27038427734375,-1.0478858947753906,0.4408055543899536,-0.7946251630783081
1701290496318459100,0.280459228515625,-1.162328839302063,0.4090798497200012,-0.7443438768386841
1701290496328534000,0.290533935546875,-1.1574126482009888,0.6233641505241394,-0.56180739402771
1701290496338610200,0.300610107421875,-1.073333978652954,0.6772971153259277,-0.42401257157325745
1701290496348685000,0.31068505859375,-0.9472472071647644,0.6433517932891846,-0.4239276647567749
1701290496358760200,0.32076025390625,-0.8635216951370239,0.6124644875526428,-0.5210491418838501
1701290496368836000,0.330836181640625,-0.864490270614624,0.5561639070510864,-0.6115151643753052
1701290496378911000,0.340910888671875,-0.8820415735244751,0.5034838914871216,-0.6646260023117065
1701290496388986000,0.350986083984375,-0.8995516300201416,0.49355340003967285,-0.7042408585548401
1701290496399062300,0.361062255859375,-0.9254719018936157,0.48314014077186584,-0.7605088949203491
1701290496409137000,0.371136962890625,-0.9628770351409912,0.4295123517513275,-0.8535621166229248
1701290496419212000,0.3812119140625,-1.0065385103225708,0.34075742959976196,-0.9186452031135559
1701290496429288200,0.3912880859375,-1.00491464138031,0.23013895750045776,-0.9120644927024841
1701290496439363000,0.401363037109375,-0.9774852395057678,0.12745653092861176,-0.8035710453987122
1701290496449438200,0.411438232421875,-0.9694532752037048,0.08225127309560776,-0.6618191599845886
1701290496459514000,0.42151416015625,-1.0104658603668213,0.08021342009305954,-0.5351986289024353
1701290496469589000,0.431589111328125,-1.0558421611785889,0.07373688369989395,-0.47355738282203674
1701290496479664000,0.4416640625,-1.2599985599517822,0.11265312135219574,-0.45542633533477783
1701290496489740000,0.451739990234375,-1.5268412828445435,0.2872045338153839,-0.39144638180732727
1701290496499815000,0.46181494140625,-1.6784610748291016,0.6751567721366882,-0.27253732085227966
1701290496509890000,0.47189013671875,-1.3812724351882935,1.5908894538879395,-0.04663020372390747
1701290496519965200,0.481965087890625,-1.1081348657608032,2.0271010398864746,-0.0877816304564476
1701290496530041000,0.492041015625,-1.0635020732879639,2.0080363750457764,-0.2360527068376541
1701290496540116000,0.502115966796875,-1.20388925075531,1.7494503259658813,-0.3293064534664154
1701290496550191000,0.512191162109375,-1.3773493766784668,1.418208360671997,-0.2943931221961975
1701290496560267000,0.52226708984375,-1.5294119119644165,0.9917382001876831,-0.2483462691307068
1701290496570342100,0.532342041015625,-1.615674614906311,0.44721418619155884,-0.2880013585090637
1701290496580417300,0.542417236328125,-1.574110984802246,-0.07760324329137802,-0.3975571393966675
1701290496590493000,0.552492919921875,-1.4350879192352295,-0.45669758319854736,-0.5431461334228516
1701290496600568000,0.562568115234375,-1.3530231714248657,-0.6632177829742432,-0.6822512745857239
1701290496610643200,0.572643310546875,-1.2547374963760376,-0.7036475539207458,-0.7820420861244202
1701290496620718800,0.58271875,-1.1266330480575562,-0.661864161491394,-0.794462263584137
1701290496630794000,0.5927939453125,-1.0632269382476807,-0.5503984689712524,-0.7554636597633362
1701290496640869000,0.602869140625,-1.0787475109100342,-0.3376976549625397,-0.7051895260810852
1701290496650945300,0.6129453125,-1.1579848527908325,-0.08390475809574127,-0.651569128036499
1701290496661020200,0.623020263671875,-1.3028109073638916,0.010935205034911633,-0.5939748287200928
1701290496671095000,0.633094970703125,-1.501638650894165,-0.021378297358751297,-0.510776698589325
1701290496681171200,0.643171142578125,-1.7189559936523438,-0.1654617041349411,-0.43360069394111633
1701290496691246000,0.65324609375,-1.8712257146835327,-0.4013809859752655,-0.3696622848510742
1701290496701321200,0.6633212890625,-1.9274356365203857,-0.6214798092842102,-0.30808043479919434
1701290496711396000,0.67339599609375,-1.8791897296905518,-0.8443971276283264,-0.17755404114723206
1701290496721472000,0.683471923828125,-1.7237300872802734,-0.9622183442115784,-0.01868343912065029
1701290496731547100,0.693547119140625,-1.5122737884521484,-0.8714588284492493,0.11824218928813934
1701290496741622000,0.7036220703125,-1.2372827529907227,-0.6629788875579834,0.21831712126731873
1701290496751698000,0.713697998046875,-0.9199121594429016,-0.37672755122184753,0.29116684198379517
1701290496761773000,0.72377294921875,-0.6376966834068298,-0.21416819095611572,0.3406188189983368
1701290496771848000,0.733847900390625,-0.3985440135002136,-0.15004467964172363,0.32248783111572266
1701290496781924000,0.743924072265625,-0.20060347020626068,-0.12443864345550537,0.2264864593744278
1701290496791999000,0.7539990234375,-0.06088835000991821,-0.12548084557056427,0.07106661796569824
1701290496802073900,0.764073974609375,-0.19199684262275696,0.17942580580711365,-0.3108932673931122
1701290496812150000,0.77414990234375,-0.3237830698490143,0.1441226750612259,-0.5108223557472229
1701290496822225200,0.78422509765625,-0.2993302047252655,-0.15892161428928375,-0.4810263514518738
1701290496832300300,0.79430029296875,-0.14561611413955688,-0.5116723775863647,-0.31148669123649597
1701290496842376000,0.8043759765625,0.007809661328792572,-0.7043083906173706,-0.14500558376312256
1701290496852451000,0.814451171875,0.03258183225989342,-0.6859881281852722,-0.07448244839906693
1701290496862526200,0.824526123046875,-0.04722804203629494,-0.5059214234352112,-0.11806747317314148
1701290496872602000,0.83460205078125,-0.11284122616052628,-0.3500911295413971,-0.22278891503810883
1701290496882677000,0.844677001953125,-0.13837508857250214,-0.3096848428249359,-0.32604870200157166
1701290496892752100,0.854752197265625,-0.14193741977214813,-0.3216386139392853,-0.3508870601654053
1701290496902828000,0.864828125,-0.15075062215328217,-0.3362977206707001,-0.28693124651908875
1701290496912903200,0.874903076171875,-0.16925817728042603,-0.32298335433006287,-0.18688417971134186
1701290496922978000,0.88497802734375,-0.17607958614826202,-0.28505221009254456,-0.13782289624214172
1701290496933053200,0.89505322265625,-0.13503728806972504,-0.23347949981689453,-0.17080502212047577
1701290496943129300,0.90512939453125,-0.05466414988040924,-0.17384785413742065,-0.21755549311637878
1701290496953204200,0.915204345703125,0.01556494738906622,-0.1631430834531784,-0.24481645226478577
1701290496963279400,0.925279296875,0.05642076954245567,-0.20150938630104065,-0.2579208016395569
1701290496973355300,0.935355224609375,0.08256804943084717,-0.2330550104379654,-0.24786219000816345
1701290496983430100,0.94543017578125,0.08234807103872299,-0.22078342735767365,-0.23158255219459534
1701290496993505300,0.95550537109375,0.07508331537246704,-0.1619574874639511,-0.22800931334495544
1701290497003581200,0.965581298828125,0.00812958087772131,-0.06516009569168091,-0.19927674531936646
1701290497013656000,0.975656005859375,-0.13158613443374634,-0.022447355091571808,-0.11400780826807022
1701290497023731200,0.985731201171875,-0.09142220765352249,-0.04146818071603775,-0.0967198982834816
1701290497033807400,0.995807373046875,0.03087538108229637,-0.06526942551136017,-0.1966862827539444
1701290497043882200,1.00588232421875,0.05741111561655998,-0.06523480266332626,-0.3046806752681732
1701290497053957000,1.01595703125,0.019664902240037918,-0.06910353899002075,-0.325170636177063
1701290497064033300,1.026033203125,-0.03033195249736309,-0.10603652149438858,-0.22783318161964417
1701290497074108200,1.036108154296875,-0.034341614693403244,-0.12457172572612762,-0.11877833306789398
1701290497084183300,1.046183349609375,-0.03425879031419754,-0.025841951370239258,-0.11834796518087387
1701290497094258400,1.056258544921875,-0.030872518196702003,0.026687365025281906,-0.1457531899213791
1701290497104334000,1.066333984375,-0.029801396653056145,-0.0007349411025643349,-0.14798066020011902
1701290497114409200,1.0764091796875,-0.028819654136896133,-0.03979868441820145,-0.1431029587984085
1701290497124484400,1.086484375,-0.02499988302588463,-0.06098253279924393,-0.14183557033538818
1701290497134560000,1.09656005859375,-0.0201474167406559,-0.07650947570800781,-0.1413048803806305
1701290497144635100,1.10663525390625,-0.01350709144026041,-0.07975906133651733,-0.14349958300590515
1701290497154710300,1.116710205078125,-0.010614198632538319,-0.0753912478685379,-0.1561259925365448
1701290497164786200,1.1267861328125,-0.0056340876035392284,-0.08924022316932678,-0.16482281684875488
1701290497174861300,1.136861328125,-0.004621014464646578,-0.12127205729484558,-0.17314119637012482
1701290497184936200,1.146936279296875,-0.00400262838229537,-0.15001823008060455,-0.17082664370536804
1701290497195012000,1.15701220703125,-0.014983467757701874,-0.15695220232009888,-0.16092856228351593
1701290497205087200,1.167087158203125,-0.027557315304875374,-0.1531665176153183,-0.14670036733150482
1701290497215162400,1.177162353515625,-0.03189143165946007,-0.1528049111366272,-0.1334397792816162
1701290497225238000,1.187238037109375,-0.02955344319343567,-0.1574646383523941,-0.1238555908203125
1701290497235313200,1.197313232421875,-0.027442144230008125,-0.16457121074199677,-0.1254758983850479
1701290497245388300,1.20738818359375,-0.026103373616933823,-0.16673316061496735,-0.13132499158382416
1701290497255464200,1.217464111328125,-0.027424313127994537,-0.15795564651489258,-0.13619914650917053
1701290497265539000,1.2275390625,-0.032225195318460464,-0.148287832736969,-0.13913793861865997
1701290497275614200,1.2376142578125,-0.029107363894581795,-0.16752207279205322,-0.13469146192073822
1701290497285689000,1.247689208984375,-0.028039701282978058,-0.1978434920310974,-0.13000430166721344
1701290497295765200,1.25776513671875,-0.021214384585618973,-0.2168864607810974,-0.1283380538225174
1701290497305840000,1.267840087890625,-0.018719801679253578,-0.2058742791414261,-0.1339738368988037
1701290497315915000,1.2779150390625,-0.019840627908706665,-0.19005854427814484,-0.14117226004600525
1701290497325991200,1.2879912109375,-0.024166135117411613,-0.18349012732505798,-0.1353471279144287
1701290497336066300,1.29806640625,-0.031111497431993484,-0.191890150308609,-0.11914882808923721
1701290497346141200,1.30814111328125,-0.03973880782723427,-0.19514720141887665,-0.11357749998569489
1701290497356217000,1.318217041015625,-0.04304875060915947,-0.20110759139060974,-0.11149666458368301
1701290497366292200,1.328292236328125,-0.04606185108423233,-0.21220311522483826,-0.11008571833372116
1701290497376367000,1.3383671875,-0.04643271863460541,-0.21694163978099823,-0.10320479422807693
1701290497386443300,1.348443359375,-0.04385637491941452,-0.20444396138191223,-0.0980377271771431
1701290497396518100,1.35851806640625,-0.039799418300390244,-0.1773737668991089,-0.10318278521299362
1701290497406593000,1.368593017578125,-0.03458761051297188,-0.15663626790046692,-0.10239609330892563
1701290497416669200,1.378669189453125,-0.03529131039977074,-0.1511780321598053,-0.09549939632415771
1701290497426744300,1.388744384765625,-0.034191954880952835,-0.15226060152053833,-0.08703640103340149
1701290497436819200,1.398819091796875,-0.03871763125061989,-0.15712855756282806,-0.08290014415979385
1701290497446895000,1.40889501953125,-0.042128343135118484,-0.1535218358039856,-0.07342355698347092
1701290497456970200,1.41897021484375,-0.040863003581762314,-0.13504931330680847,-0.059514064341783524
1701290497467045400,1.42904541015625,-0.037131913006305695,-0.1031171977519989,-0.04945823550224304
1701290497477120300,1.439120361328125,-0.0299210324883461,-0.07736479490995407,-0.041237473487854004
1701290497487196200,1.449196044921875,-0.030807597562670708,-0.05280858650803566,-0.04397893324494362
1701290497497271300,1.459271240234375,-0.03453214839100838,-0.042722027748823166,-0.04487841576337814
1701290497507346200,1.46934619140625,-0.033740654587745667,-0.053056422621011734,-0.04379450902342796
1701290497517422000,1.479422119140625,-0.030982840806245804,-0.07425914704799652,-0.04017355293035507
1701290497527497200,1.489497314453125,-0.026768121868371964,-0.06681694090366364,-0.033023495227098465
1701290497537572000,1.499572021484375,-0.02081107720732689,-0.04416937753558159,-0.020674066618084908
1701290497547648300,1.509648193359375,-0.02255198545753956,-0.011295315809547901,-0.011955409310758114
1701290497557723400,1.519723388671875,-0.024308346211910248,0.021823624148964882,-0.012927739880979061
1701290497567798000,1.529798095703125,-0.026323294267058372,0.0450114980340004,-0.006146798375993967
1701290497577874200,1.539874267578125,-0.031255390495061874,0.041967157274484634,-0.0013546304544433951
1701290497587949300,1.54994921875,-0.03316620737314224,0.03424292430281639,0.0028481041081249714
1701290497598024200,1.560024169921875,-0.030612580478191376,0.029138261452317238,0.0008993931114673615
1701290497608100000,1.57010009765625,-0.026660718023777008,0.03709019720554352,-0.0073588029481470585
1701290497618175200,1.58017529296875,-0.02000618353486061,0.05063680559396744,-0.020498212426900864
1701290497628250000,1.59025,-0.013408733531832695,0.06542720645666122,-0.02090354636311531
1701290497638325200,1.6003251953125,-0.012920948676764965,0.06851763278245926,-0.009054990485310555
1701290497648401200,1.610401123046875,-0.014112447388470173,0.057724375277757645,0.0036821106914430857
1701290497658476000,1.62047607421875,-0.01572878658771515,0.04971126839518547,0.00015123491175472736
1701290497668551200,1.63055126953125,-0.0152853699401021,0.04856770485639572,-0.004606236238032579
1701290497678627300,1.64062744140625,-0.015547438524663448,0.05338190495967865,-0.004776697605848312
1701290497688702200,1.6507021484375,-0.019233252853155136,0.06600528955459595,-0.001262922422029078
1701290497698777000,1.660777099609375,-0.014224187470972538,0.06602334976196289,0.008664743043482304
1701290497708853200,1.670853271484375,-0.008373222313821316,0.059493813663721085,0.014866978861391544
1701290497718928100,1.68092822265625,-0.001783224637620151,0.064820796251297,0.01953204721212387
1701290497729003300,1.691003173828125,0.002590484917163849,0.07795364409685135,0.019137632101774216
1701290497739079200,1.7010791015625,0.00770934671163559,0.08991736173629761,0.02120504342019558
1701290497749154000,1.711154052734375,0.006607863120734692,0.1088244691491127,0.022137150168418884
1701290497759229200,1.721229248046875,0.004783040378242731,0.12252352386713028,0.017366060987114906
1701290497769305300,1.731305419921875,0.006468022242188454,0.1104535385966301,0.027575554326176643
1701290497779380000,1.7413798828125,0.006081411149352789,0.08743975311517715,0.04241210222244263
1701290497789455000,1.751455078125,0.007668921258300543,0.09074153751134872,0.040238961577415466
1701290497799530200,1.7615302734375,0.0041111246682703495,0.10145977884531021,0.0351296104490757
1701290497809606100,1.771606201171875,0.013324330560863018,0.11143811047077179,0.027465566992759705
1701290497819681300,1.781681396484375,0.016783669590950012,0.11650753021240234,0.021477598696947098
1701290497829756200,1.791756103515625,0.019213804975152016,0.12605230510234833,0.018740402534604073
1701290497839832300,1.801832275390625,0.019068682566285133,0.12524548172950745,0.019173994660377502
1701290497849907200,1.8119072265625,0.022737719118595123,0.11873672157526016,0.025887025520205498
1701290497859982300,1.821982421875,0.02160763368010521,0.11312074959278107,0.03240366280078888
1701290497870058200,1.832058349609375,0.017254963517189026,0.10699015110731125,0.04003202170133591
1701290497880133000,1.842133056640625,0.01316134538501501,0.11198139190673828,0.03993794694542885
1701290497890208300,1.852208251953125,0.015350463800132275,0.1123712807893753,0.04240669682621956
1701290497900284400,1.862284423828125,0.01347517129033804,0.1003749817609787,0.04433201253414154
1701290497910359000,1.872359130859375,0.018512006849050522,0.08976973593235016,0.053798750042915344
1701290497920434200,1.88243408203125,0.017386622726917267,0.08908868581056595,0.053457923233509064
1701290497930509000,1.892509033203125,0.019167743623256683,0.09627282619476318,0.04731401056051254
1701290497940584000,1.902583984375,0.015754638239741325,0.08471550792455673,0.04314083606004715
1701290497950659000,1.9126591796875,0.017052648589015007,0.06768593192100525,0.028735779225826263
1701290497960735000,1.92273486328125,0.014865322038531303,0.05296552926301956,0.02362777106463909
1701290497970809900,1.932809814453125,0.01532365195453167,0.04134508967399597,0.023104991763830185
1701290497980885000,1.942885009765625,0.014819002710282803,0.02269269898533821,0.02532077021896839
1701290497990959900,1.9529599609375,0.01450048852711916,0.016893932595849037,0.02116570621728897
1701290498001036000,1.9630361328125,0.012373626232147217,0.022207103669643402,0.020550956949591637
1701290498011111000,1.97311083984375,0.011889196932315826,0.02520875260233879,0.00892306212335825
1701290498021185800,1.983185791015625,0.007334187626838684,0.00601918064057827,-0.004389720968902111
1701290498031262000,1.993261962890625,0.006817534565925598,-0.03304300084710121,-0.009501125663518906
1701290498041337000,2.003337158203125,0.0022474443539977074,-0.06276937574148178,-0.010449858382344246
1701290498051412000,2.013411865234375,-0.0008655245183035731,-0.0710185170173645,-0.015429703518748283
1701290498061487900,2.02348779296875,-0.0027846847660839558,-0.06835193932056427,-0.014657738618552685
1701290498071563000,2.03356298828125,-0.002865644870325923,-0.06308872997760773,-0.012765828520059586
1701290498081638100,2.04363818359375,0.0035422667860984802,-0.06175723671913147,-0.007620525546371937
1701290498091713800,2.0537138671875,0.01069924607872963,-0.055299337953329086,-0.014751672744750977
1701290498101789000,2.063788818359375,0.01678002066910267,-0.04924662783741951,-0.018294239416718483
1701290498111864000,2.073864013671875,0.014333108440041542,-0.05569547042250633,-0.02266635186970234
1701290498121940000,2.08393994140625,0.0070683714002370834,-0.068914033472538,-0.020404689013957977
1701290498132015000,2.09401513671875,0.003963924944400787,-0.0689915269613266,-0.010233810171484947
1701290498142090000,2.104090087890625,0.009470668621361256,-0.04961221665143967,-0.005753697361797094
1701290498152166000,2.114165771484375,0.01145126111805439,-0.032688893377780914,0.0060526286251842976
1701290498162241000,2.124240966796875,0.014725219458341599,-0.00906574260443449,0.008967837318778038
1701290498172316200,2.134316162109375,0.014219751581549644,0.007009363733232021,0.008162496611475945
1701290498182391000,2.14439111328125,0.015534834004938602,0.0012808972969651222,0.0008769076084718108
1701290498192467000,2.154467041015625,0.013993929140269756,-0.0049948422238230705,-0.0012392401695251465
1701290498202542000,2.1645419921875,0.007013276685029268,-0.00026428140699863434,0.0055571855045855045
1701290498212617000,2.174616943359375,0.003989257849752903,0.01534823328256607,0.0230253916233778
1701290498222692900,2.18469287109375,0.00574800930917263,0.036737676709890366,0.03251156955957413
1701290498232768000,2.19476806640625,0.009473239071667194,0.05424397066235542,0.028571423143148422
1701290498242843000,2.2048427734375,0.014344041235744953,0.06448659300804138,0.01985636167228222
1701290498252919000,2.2149189453125,0.011294721625745296,0.059447892010211945,0.015433384105563164
1701290498262994200,2.224994140625,0.005081034731119871,0.04954598844051361,0.010237290523946285
1701290498273068800,2.23506884765625,0.0019502223003655672,0.03870159760117531,0.014915665611624718
1701290498283145000,2.24514501953125,-0.000020310981199145317,0.04554399847984314,0.024835627526044846
1701290498293220000,2.25522021484375,0.003932885359972715,0.0674905776977539,0.031818702816963196
1701290498303295000,2.265294921875,0.010906013660132885,0.08452797681093216,0.027837980538606644
1701290498313371000,2.275370849609375,0.015458420850336552,0.08855600655078888,0.022009918466210365
1701290498323446000,2.285446044921875,0.019502343609929085,0.07583297789096832,0.014021416194736958
1701290498333521000,2.29552099609375,0.020144963636994362,0.05496763810515404,0.012816335074603558
1701290498343597000,2.30559716796875,0.022432779893279076,0.04156537726521492,0.012614352628588676
1701290498353672000,2.315671875,0.024070357903838158,0.03789474442601204,0.021889610216021538
1701290498363746800,2.325746826171875,0.02830399200320244,0.04341081157326698,0.025572238489985466
1701290498373822000,2.335822021484375,0.02861531637609005,0.04325235262513161,0.026578381657600403
1701290498383898000,2.345898193359375,0.03343484550714493,0.038512326776981354,0.029915330931544304
1701290498393973000,2.355972900390625,0.03758884221315384,0.03592905402183533,0.03601263836026192
1701290498404048000,2.3660478515625,0.033674415200948715,0.04355365410447121,0.03540797531604767
1701290498414124000,2.3761240234375,0.032844044268131256,0.04907012730836868,0.032432425767183304
1701290498424199000,2.386198974609375,0.03083994798362255,0.05279809981584549,0.02980436384677887
1701290498434274000,2.396274169921875,0.031944625079631805,0.04912745952606201,0.020645752549171448
1701290498444350000,2.406349853515625,0.028357941657304764,0.03412620350718498,0.012737806886434555
1701290498454425000,2.416425048828125,0.026454845443367958,0.019915573298931122,0.005883363541215658
1701290498464500000,2.4265,0.022581104189157486,0.007835918106138706,0.003864250611513853
1701290498474576000,2.436575927734375,0.015772201120853424,0.010678309015929699,0.01035597175359726
1701290498484651000,2.446651123046875,0.014202220365405083,0.014043147675693035,0.017851943150162697
1701290498494726000,2.456725830078125,0.01538599468767643,0.026632443070411682,0.015927011147141457
1701290498504802000,2.466802001953125,0.015922050923109055,0.03991551324725151,0.00012588594108819962
1701290498514877200,2.476877197265625,0.014407244510948658,0.0461297333240509,-0.011568319983780384
1701290498524951800,2.486951904296875,0.008269297890365124,0.03190808743238449,-0.017077753320336342
1701290498535028000,2.497028076171875,0.0018020772840827703,0.008034445345401764,-0.007083974312990904
1701290498545103000,2.50710302734375,-0.0022747633047401905,-0.014839229173958302,-0.00020616129040718079
1701290498555178000,2.517177978515625,-0.0037845096085220575,-0.022285960614681244,0.001402387977577746
1701290498565254000,2.52725390625,0.0005128344637341797,-0.018596230074763298,0.00038405199302360415
1701290498575329000,2.5373291015625,0.0034875853452831507,-0.0021272418089210987,-0.005966788157820702
1701290498585404000,2.54740380859375,0.0033688084222376347,0.01337981317192316,-0.017826376482844353
1701290498595479000,2.55747900390625,0.00040923748747445643,0.0013553742319345474,-0.02305389568209648
1701290498605555000,2.567554931640625,0.002215732354670763,-0.028719916939735413,-0.01430934201925993
1701290498615629800,2.5776298828125,-0.0007853837450966239,-0.046300772577524185,-0.004544595256447792
1701290498625705000,2.587705078125,0.0011347623076289892,-0.04677442088723183,-0.0035413720179349184
1701290498635781000,2.597781005859375,0.0027483715675771236,-0.030160825699567795,-0.005561912432312965
1701290498645856000,2.60785595703125,-0.0005690214456990361,-0.0137044508010149,-0.011030065827071667
1701290498655931000,2.617930908203125,0.0004376534197945148,-0.006776236928999424,-0.011357634328305721
1701290498666007000,2.628007080078125,-0.002810724778100848,-0.01832200028002262,-0.005167519208043814
1701290498676082000,2.63808203125,0.00018213567091152072,-0.038562025874853134,-0.004683090373873711
1701290498686157000,2.648156982421875,0.003992873709648848,-0.06030607968568802,-0.0067014689557254314
1701290498696233000,2.65823291015625,0.006103162188082933,-0.06368110328912735,-0.0003671403101179749
1701290498706307800,2.668307861328125,0.002735069254413247,-0.04198127239942551,-0.005017542280256748
1701290498716383000,2.678383056640625,0.0013422360643744469,-0.008139419369399548,-0.015164186246693134
1701290498726459100,2.688459228515625,0.0042123980820178986,-0.0031539280898869038,-0.016167599707841873
1701290498736533800,2.69853369140625,-0.0015000826679170132,-0.029816964641213417,-0.008523528464138508
1701290498746609000,2.70860888671875,-0.005457267165184021,-0.05738747864961624,-0.0025130300782620907
1701290498756684000,2.71868408203125,-0.011602244339883327,-0.06433699280023575,-0.004590295720845461
1701290498766760000,2.728760009765625,-0.00224682642146945,-0.06527655571699142,-0.0012634749291464686
1701290498776835000,2.7388349609375,0.0024784202687442303,-0.05697602033615112,-0.00043975916923955083
1701290498786910000,2.748909912109375,0.003715112339705229,-0.04002118483185768,-0.008866076357662678
1701290498796986000,2.758986083984375,0.006462163291871548,-0.03272172808647156,-0.017248375341296196
1701290498807061000,2.76906103515625,0.006844932213425636,-0.04926975816488266,-0.020813750103116035
1701290498817136000,2.77913623046875,0.005696311593055725,-0.061865177005529404,-0.015519918873906136
1701290498827212000,2.7892119140625,0.0012960832100361586,-0.06701703369617462,-0.014484357088804245
1701290498837287000,2.799286865234375,-0.0026310142129659653,-0.05648529529571533,-0.004370736423879862
1701290498847362000,2.809362060546875,0.0020518945530056953,-0.03621850907802582,-0.0014388528652489185
1701290498857438200,2.819438232421875,0.0049355654045939445,-0.013792562298476696,-0.0010223344434052706
1701290498867512800,2.829512939453125,0.005176382139325142,-0.003294992260634899,-0.006410918198525906
1701290498877588000,2.839587890625,0.004195806570351124,-0.013039232231676579,-0.007907881401479244
1701290498887664000,2.8496640625,0.006926204077899456,-0.036140795797109604,-0.006078413221985102
1701290498897739000,2.859739013671875,0.010973143391311169,-0.03953685984015465,0.00020611396757885814
1701290498907814100,2.869814208984375,0.012831113301217556,-0.023509319871664047,0.0023458318319171667
1701290498917890000,2.87989013671875,0.0164860337972641,-0.005321261938661337,0.005723519250750542
1701290498927966000,2.889966064453125,0.015821488574147224,0.0041875094175338745,0.006391620729118586
1701290498938041000,2.900041015625,0.0031331253703683615,0.0046983035281300545,-0.0072325789369642735
1701290498948116700,2.91011669921875,0.0011291831033304334,-0.002930276095867157,-0.0204034224152565
1701290498958191900,2.92019189453125,-0.01499971840530634,-0.010511762462556362,-0.016202019527554512
1701290498968267000,2.93026708984375,-0.029457494616508484,-0.020497146993875504,-0.009115091525018215
1701290498978342700,2.9403427734375,-0.028816204518079758,-0.02939104102551937,-0.013812108896672726
1701290498988417800,2.950417724609375,-0.028579531237483025,-0.026368269696831703,-0.020990202203392982
1701290498998493000,2.960492919921875,-0.025148579850792885,-0.008335739374160767,-0.027321601286530495
1701290499008567800,2.97056787109375,-0.019011059775948524,0.008736720308661461,-0.037375036627054214
1701290499018644000,2.98064404296875,-0.01886804774403572,0.015392493456602097,-0.048017557710409164
1701290499028718800,2.99071875,-0.025551870465278625,0.0107918381690979,-0.042460158467292786
1701290499038793700,3.000793701171875,-0.03734807297587395,0.008072750642895699,-0.03761959820985794
1701290499048870000,3.010869873046875,-0.0449473112821579,0.010296398773789406,-0.039625395089387894
1701290499058945000,3.020945068359375,-0.04151130095124245,0.008912352845072746,-0.04233622923493385
1701290499069020000,3.03102001953125,-0.0294918492436409,0.004889700561761856,-0.04731573909521103
1701290499079095800,3.041095703125,-0.024210534989833832,0.0032462645322084427,-0.054875388741493225
1701290499089171000,3.0511708984375,-0.019099915400147438,-0.00727536017075181,-0.05564315989613533
1701290499099245800,3.061245849609375,-0.017952891066670418,-0.018951456993818283,-0.05118529498577118
1701290499109321700,3.07132177734375,-0.027632365003228188,-0.024068787693977356,-0.026882849633693695
1701290499119396900,3.08139697265625,-0.03342686966061592,-0.015534689649939537,-0.011734522879123688
1701290499129471700,3.0914716796875,-0.03593164309859276,0.008581510744988918,-0.013608920387923717
1701290499139548000,3.1015478515625,-0.030618907883763313,0.036219265311956406,-0.023364344611763954
1701290499149623000,3.111623046875,-0.03256123885512352,0.046271052211523056,-0.027514435350894928
1701290499159697700,3.12169775390625,-0.030888503417372704,0.03851459547877312,-0.04130907356739044
1701290499169773800,3.13177392578125,-0.03216042369604111,0.019139163196086884,-0.06011604145169258
1701290499179849000,3.141848876953125,-0.03143604099750519,-0.0066287824884057045,-0.07440150529146194
1701290499189923800,3.151923828125,-0.03038872219622135,-0.031552813947200775,-0.07667302340269089
1701290499199999000,3.1619990234375,-0.026375338435173035,-0.06816968321800232,-0.07365033775568008
1701290499210075000,3.172074951171875,-0.017295651137828827,-0.09634583443403244,-0.06418582051992416
1701290499220149800,3.182149658203125,-0.010473963804543018,-0.10074111819267273,-0.06402842700481415
1701290499230225000,3.192224853515625,-0.002058893907815218,-0.09459879994392395,-0.060523420572280884
1701290499240300800,3.20230078125,0.005788376554846764,-0.09563584625720978,-0.0534476675093174
1701290499250375700,3.212375732421875,0.011538847349584103,-0.09559633582830429,-0.05098620429635048
1701290499260450800,3.222450927734375,0.01254232693463564,-0.0998786985874176,-0.05461582541465759
1701290499270527000,3.23252685546875,0.00825722049921751,-0.0842013880610466,-0.05597331374883652
1701290499280601900,3.242601806640625,-0.004526751581579447,-0.06682612001895905,-0.05190613493323326
1701290499290676700,3.2526767578125,-0.023592600598931313,-0.047371190041303635,-0.04437021166086197
1701290499300753000,3.2627529296875,-0.04205150157213211,-0.012882988899946213,-0.03570641577243805
1701290499310828000,3.272828125,-0.05331335961818695,0.009902380406856537,-0.02537374757230282
1701290499320903000,3.28290283203125,-0.052392441779375076,0.003911865875124931,-0.02321578748524189
1701290499330978800,3.292978759765625,-0.04573935642838478,-0.007936258800327778,-0.025708811357617378
1701290499341054000,3.303053955078125,-0.042520128190517426,-0.016079939901828766,-0.034172069281339645
1701290499351128800,3.31312890625,-0.03787783160805702,-0.026549644768238068,-0.05160953477025032
1701290499361204700,3.323204833984375,-0.029105648398399353,-0.03427254408597946,-0.06698156148195267
1701290499371280000,3.33327978515625,-0.021168138831853867,-0.04037844389677048,-0.07059922814369202
1701290499381354800,3.343354736328125,-0.009312012232840061,-0.04490368813276291,-0.06253251433372498
1701290499391431000,3.353430908203125,-0.0061714136973023415,-0.0323188416659832,-0.059229448437690735
1701290499401506000,3.363506103515625,-0.011047129519283772,-0.019188659265637398,-0.05511007085442543
1701290499411581000,3.373580810546875,-0.001997661776840687,-0.03053818643093109,-0.05045697093009949
1701290499421656800,3.38365673828125,0.0022847014479339123,-0.044584233313798904,-0.05281386896967888
1701290499431732000,3.39373193359375,0.004957370460033417,-0.030529581010341644,-0.059722717851400375
1701290499441806800,3.403806884765625,0.008733466267585754,-0.007954230532050133,-0.0598478838801384
1701290499451882800,3.4138828125,0.010435745120048523,0.00279376283288002,-0.04963041841983795
1701290499461958000,3.4239580078125,0.013057360425591469,-0.001233203336596489,-0.04595685377717018
1701290499472032800,3.43403271484375,0.016686297953128815,-0.017422262579202652,-0.04980446398258209
1701290499482108000,3.44410791015625,0.01966051757335663,-0.045177195221185684,-0.05858703702688217
1701290499492183800,3.454183837890625,0.02147899568080902,-0.061412304639816284,-0.07307776063680649
1701290499502258700,3.4642587890625,0.02581062726676464,-0.056774675846099854,-0.08989162743091583
1701290499512333800,3.474333740234375,0.02526167780160904,-0.05602984130382538,-0.10584456473588943
1701290499522410000,3.484409912109375,0.01869911514222622,-0.06249493360519409,-0.11834810674190521
1701290499532484900,3.49448486328125,0.011475823819637299,-0.07744058966636658,-0.11684288829565048
1701290499542559700,3.504559814453125,0.005258673802018166,-0.08266544342041016,-0.11320900917053223
1701290499552636000,3.514635986328125,-0.0012128209928050637,-0.08578293770551682,-0.12441880255937576
1701290499562710800,3.524710693359375,-0.003025634679943323,-0.09251407533884048,-0.13627839088439941
1701290499572786000,3.534785888671875,-0.00035748654045164585,-0.08875960856676102,-0.13978371024131775
1701290499582861800,3.54486181640625,-0.002333285752683878,-0.07020483165979385,-0.13613970577716827
1701290499592936700,3.554936767578125,-0.0032195725943893194,-0.05338270962238312,-0.1242595911026001
1701290499603011800,3.56501171875,-0.003347670892253518,-0.04328081011772156,-0.10694079101085663
1701290499613088000,3.575087890625,-0.005658975336700678,-0.04561940208077431,-0.0947011336684227
1701290499623162600,3.58516259765625,-0.006660589948296547,-0.05653303489089012,-0.09559915214776993
1701290499633237800,3.59523779296875,-0.006404740270227194,-0.057498347014188766,-0.10362625122070312
1701290499643314000,3.60531396484375,0.000872880220413208,-0.062190573662519455,-0.11179603636264801
1701290499653389000,3.61538916015625,0.004550979007035494,-0.07186117768287659,-0.11489860713481903
1701290499663464000,3.6254638671875,0.006395217962563038,-0.08462650328874588,-0.11431831121444702
1701290499673539800,3.635539794921875,0.004585046321153641,-0.09520284086465836,-0.11012332886457443
1701290499683615000,3.645614990234375,0.00918485876172781,-0.10259391367435455,-0.10872223973274231
1701290499693689900,3.65568994140625,0.009967927820980549,-0.11110320687294006,-0.11818753927946091
1701290499703765800,3.665765869140625,0.013605273328721523,-0.11981760710477829,-0.12016014009714127
1701290499713841000,3.6758408203125,0.015207956545054913,-0.13197825849056244,-0.11380957812070847
1701290499723915800,3.685915771484375,0.01500848587602377,-0.1263083815574646,-0.11330011487007141
1701290499733992000,3.695991943359375,0.02565726265311241,-0.11981264501810074,-0.11394684761762619
1701290499744067000,3.706067138671875,0.03418364003300667,-0.10861165821552277,-0.11993390321731567
1701290499754141700,3.7161416015625,0.040648069232702255,-0.08758016675710678,-0.11978571116924286
1701290499764216800,3.726216796875,0.04226088151335716,-0.06360799074172974,-0.11588364839553833
1701290499774293000,3.73629296875,0.048074495047330856,-0.04254763573408127,-0.10606169700622559
1701290499784367900,3.746367919921875,0.044447802007198334,-0.030620668083429337,-0.09626393020153046
1701290499794443000,3.756443115234375,0.03986172378063202,-0.021532660350203514,-0.09356760233640671
1701290499804519000,3.766518798828125,0.03818100318312645,-0.017997846007347107,-0.09987343847751617
1701290499814593800,3.77659375,0.039262499660253525,-0.029946643859148026,-0.10107454657554626
1701290499824669000,3.7866689453125,0.04055839031934738,-0.04297935590147972,-0.10284155607223511
1701290499834744800,3.796744873046875,0.041914861649274826,-0.0425696037709713,-0.10584625601768494
1701290499844819700,3.80681982421875,0.039318013936281204,-0.04579229652881622,-0.1155947595834732
1701290499854894800,3.816894775390625,0.03327154740691185,-0.08513382822275162,-0.11971311271190643
1701290499864971000,3.826970947265625,0.02911647967994213,-0.1370590627193451,-0.13555306196212769
1701290499875046000,3.8370458984375,0.024051548913121223,-0.16286815702915192,-0.1605599820613861
1701290499885120800,3.847120849609375,0.02432798594236374,-0.14869508147239685,-0.17565292119979858
1701290499895197000,3.857197021484375,0.025186022743582726,-0.12366599589586258,-0.16510418057441711
1701290499905271800,3.867271728515625,0.02203497104346752,-0.11019732803106308,-0.14715954661369324
1701290499915347000,3.877346923828125,0.018941981717944145,-0.11879494786262512,-0.13232891261577606
1701290499925422800,3.8874228515625,0.011047573760151863,-0.13902698457241058,-0.13908295333385468
1701290499935498000,3.897498046875,0.0069765858352184296,-0.15337148308753967,-0.16080909967422485
1701290499945572900,3.90757275390625,0.003295831149443984,-0.16876667737960815,-0.1690278798341751
1701290499955649000,3.91764892578125,0.009161177091300488,-0.1933671087026596,-0.17204605042934418
1701290499965724000,3.927723876953125,0.018859878182411194,-0.20910212397575378,-0.1726849377155304
1701290499975798800,3.937798828125,0.02058515138924122,-0.21952156722545624,-0.17867350578308105
1701290499985875000,3.947875,0.021582238376140594,-0.2551107108592987,-0.19350172579288483
1701290499995950000,3.9579501953125,0.016850421205163002,-0.29208093881607056,-0.21300770342350006
1701290500006025000,3.96802490234375,0.018966037780046463,-0.31914985179901123,-0.23506879806518555
1701290500016100900,3.978100830078125,0.019244423136115074,-0.34097519516944885,-0.252066045999527
1701290500026176000,3.988176025390625,0.018145069479942322,-0.34892258048057556,-0.25600725412368774
1701290500036251000,3.9982509765625,0.016822751611471176,-0.3401033282279968,-0.2450747787952423
1701290500046326800,4.008326904296875,0.012678341008722782,-0.33071407675743103,-0.23588180541992188
1701290500056402000,4.01840185546875,0.022977929562330246,-0.3216128349304199,-0.2195909321308136
1701290500066477000,4.02847705078125,0.027438191697001457,-0.2927510738372803,-0.19364960491657257
1701290500076552000,4.038552001953125,0.0366351343691349,-0.22414818406105042,-0.16977013647556305
1701290500086627800,4.0486279296875,0.047178588807582855,-0.14938685297966003,-0.15001612901687622
1701290500096703000,4.058702880859375,0.04114934802055359,-0.1140625849366188,-0.12216918170452118
1701290500106777900,4.06877783203125,0.025661202147603035,-0.1482919305562973,-0.08722291141748428
1701290500116854000,4.07885400390625,0.01787138544023037,-0.2055496871471405,-0.06776884943246841
1701290500126929200,4.08892919921875,0.013019104488193989,-0.2253284454345703,-0.06497839093208313
1701290500137003800,4.099003662109375,0.012692795135080814,-0.22708778083324432,-0.07525239884853363
1701290500147080000,4.109079833984375,0.018320852890610695,-0.22612105309963226,-0.06803363561630249
1701290500157155000,4.119155029296875,0.01985064521431923,-0.23261165618896484,-0.0614347867667675
1701290500167230000,4.12922998046875,0.01974092423915863,-0.24005013704299927,-0.07496125251054764
1701290500177305900,4.139305908203125,0.015551072545349598,-0.24783344566822052,-0.11231251060962677
1701290500187381000,4.149381103515625,0.017417149618268013,-0.26600152254104614,-0.1570807844400406
1701290500197456000,4.159455810546875,0.019009705632925034,-0.28425562381744385,-0.1973121166229248
1701290500207532000,4.169531982421875,0.020445149391889572,-0.29750192165374756,-0.21930982172489166
1701290500217607000,4.17960693359375,0.032802045345306396,-0.3050858974456787,-0.22200830280780792
1701290500227681800,4.189681884765625,0.04622437804937363,-0.2773871421813965,-0.2121143937110901
1701290500237758000,4.199758056640625,0.05038485676050186,-0.16691401600837708,-0.20474718511104584
1701290500247833000,4.2098330078125,0.05846782028675079,0.008628255687654018,-0.182093545794487
1701290500257908000,4.219907958984375,0.0799611359834671,0.19690507650375366,-0.12220623344182968
1701290500267984000,4.22998388671875,0.10429683327674866,0.31670311093330383,-0.03019908256828785
1701290500278059000,4.24005908203125,0.11155367642641068,0.3354892134666443,0.043941181153059006
1701290500288134000,4.2501337890625,0.10426407307386398,0.27831485867500305,0.0800246149301529
1701290500298209800,4.260209716796875,0.10057151317596436,0.16223827004432678,0.07585455477237701
1701290500308285000,4.270284912109375,0.12203525751829147,0.029205653816461563,0.03512230142951012
1701290500318359800,4.28035986328125,0.13823294639587402,-0.08284585922956467,-0.010928203351795673
1701290500328436000,4.29043603515625,0.14297950267791748,-0.16628164052963257,-0.037204548716545105
1701290500338511000,4.300510986328125,0.13940677046775818,-0.1839570850133896,-0.04283615201711655
1701290500348585700,4.310585693359375,0.13995805382728577,-0.140177384018898,-0.04925357177853584
1701290500358662000,4.320661865234375,0.13411039113998413,-0.07876497507095337,-0.05934444069862366
1701290500368737000,4.330737060546875,0.12563568353652954,-0.054997336119413376,-0.06888335198163986
1701290500378812000,4.34081201171875,0.11688124388456345,-0.06057083606719971,-0.06808476895093918
1701290500388887800,4.3508876953125,0.1052517518401146,-0.07415854930877686,-0.07001715898513794
1701290500398963000,4.360962890625,0.09120401740074158,-0.0909532904624939,-0.08459406346082687
1701290500409037800,4.371037841796875,0.07457976788282394,-0.1045663058757782,-0.10160607099533081
1701290500419113000,4.381113037109375,0.057430777698755264,-0.1192462146282196,-0.12760820984840393
1701290500429188900,4.39118896484375,0.037038423120975494,-0.13136360049247742,-0.13093556463718414
1701290500439264000,4.401263916015625,0.01387993898242712,-0.14367136359214783,-0.11132048070430756
1701290500449339000,4.4113388671875,-0.0022473656572401524,-0.12034393101930618,-0.09903345257043839
1701290500459415000,4.4214150390625,-0.020899593830108643,-0.08312427252531052,-0.10633954405784607
1701290500469490200,4.431490234375,-0.04616127163171768,-0.07318615168333054,-0.11472982913255692
1701290500479564800,4.441564697265625,-0.07204382866621017,-0.08166743069887161,-0.10587678104639053
1701290500489641000,4.451640869140625,-0.10106829553842545,-0.052444834262132645,-0.10256407409906387
1701290500499716000,4.461716064453125,-0.12005923688411713,-0.012181367725133896,-0.09746435284614563
1701290500509791000,4.471791015625,-0.13347092270851135,0.0013509532436728477,-0.07728424668312073
1701290500519867000,4.481866943359375,-0.13632796704769135,0.027070697396993637,-0.06670644134283066
1701290500529942000,4.49194189453125,-0.13602203130722046,0.07698799669742584,-0.08036983758211136
1701290500540017000,4.502016845703125,-0.1441958099603653,0.12076383829116821,-0.09132423251867294
1701290500550093000,4.512093017578125,-0.15945971012115479,0.14109574258327484,-0.0740903839468956
1701290500560168000,4.52216796875,-0.18539871275424957,0.14138758182525635,-0.045507270842790604
1701290500570242800,4.532242919921875,-0.21256881952285767,0.13168169558048248,-0.03892233967781067
1701290500580319000,4.542319091796875,-0.24531103670597076,0.09848418086767197,-0.05793916434049606
1701290500590394000,4.55239404296875,-0.26079145073890686,0.06363139301538467,-0.06273551285266876
1701290500600469000,4.562468994140625,-0.2787889838218689,0.060866206884384155,-0.0676630511879921
1701290500610545000,4.572544921875,-0.3022724688053131,0.06477386504411697,-0.07434811443090439
1701290500620620000,4.5826201171875,-0.3174007833003998,0.05570286884903908,-0.09227968752384186
1701290500630695000,4.59269482421875,-0.31788361072540283,0.06590889394283295,-0.1373683363199234
1701290500640770800,4.602770751953125,-0.30893203616142273,0.10122528672218323,-0.19137385487556458
1701290500650846000,4.612845947265625,-0.30526086688041687,0.16591960191726685,-0.2268703281879425
1701290500660920800,4.6229208984375,-0.2946394085884094,0.24719543755054474,-0.22478698194026947
1701290500670997000,4.6329970703125,-0.29545485973358154,0.3309643566608429,-0.1958536058664322
1701290500681071900,4.64307177734375,-0.3062991201877594,0.38353613018989563,-0.17635223269462585
1701290500691146800,4.653146728515625,-0.3032897710800171,0.37223580479621887,-0.17829766869544983
1701290500701223000,4.663222900390625,-0.29261094331741333,0.31090348958969116,-0.17367136478424072
1701290500711298000,4.673298095703125,-0.2848491370677948,0.23982001841068268,-0.14096535742282867
1701290500721373000,4.683373046875,-0.28628629446029663,0.23386754095554352,-0.10647085309028625
1701290500731448800,4.69344873046875,-0.25505831837654114,0.2732972502708435,-0.08599753677845001
1701290500741524000,4.70352392578125,-0.18520796298980713,0.31864312291145325,-0.06730174273252487
1701290500751598800,4.713598876953125,-0.09935538470745087,0.3761990964412689,-0.03872016444802284
1701290500761675000,4.723675048828125,-0.02293464168906212,0.462789386510849,-0.0034306165762245655
1701290500771750000,4.73375,0.031244173645973206,0.565939724445343,0.06119311600923538
1701290500781824800,4.74382470703125,0.060716405510902405,0.6563094258308411,0.16777583956718445
1701290500791900000,4.75389990234375,0.05400364100933075,0.713392436504364,0.32511618733406067
1701290500801976000,4.76397607421875,0.058810122311115265,0.6770215630531311,0.49359366297721863
1701290500812051000,4.774051025390625,0.06799962371587753,0.5630470514297485,0.6442563533782959
1701290500822125800,4.784125732421875,0.08705799281597137,0.41755586862564087,0.7671953439712524
1701290500832202000,4.794201904296875,0.10947675257921219,0.29464539885520935,0.8684804439544678
1701290500842277000,4.804277099609375,0.12777207791805267,0.2345932126045227,0.9603567719459534
1701290500852352000,4.81435205078125,0.13907240331172943,0.27149075269699097,1.0503770112991333
1701290500862428000,4.824427978515625,0.15470096468925476,0.3997751474380493,1.1348447799682617
1701290500872503000,4.8345029296875,0.18724054098129272,0.5828642845153809,1.2301374673843384
1701290500882578000,4.844577880859375,0.2331540286540985,0.7611337900161743,1.3222349882125854
1701290500892653800,4.85465380859375,0.29075419902801514,0.8926422595977783,1.406398057937622
1701290500902729000,4.86472900390625,0.33809348940849304,0.943348228931427,1.4651157855987549
1701290500912803800,4.874803955078125,0.3729183077812195,0.8973549008369446,1.4843688011169434
1701290500922880000,4.8848798828125,0.38668227195739746,0.8073872923851013,1.4956892728805542
1701290500932954600,4.89495458984375,0.39708083868026733,0.7184382081031799,1.4885491132736206
1701290500943029800,4.90502978515625,0.4237770736217499,0.6266929507255554,1.4794657230377197
1701290500953105700,4.915105712890625,0.4624810814857483,0.5210498571395874,1.4409133195877075
1701290500963180500,4.9251806640625,0.5032790899276733,0.42034295201301575,1.381555199623108
1701290500973255700,4.935255615234375,0.5335326194763184,0.3080981969833374,1.3025610446929932
1701290500983331600,4.94533154296875,0.5452889204025269,0.22064748406410217,1.212702751159668
1701290500993406500,4.955406494140625,0.548345148563385,0.17983639240264893,1.1273021697998047
1701290501003481600,4.965481689453125,0.5517989993095398,0.15489718317985535,1.041614294052124
1701290501013557800,4.975557861328125,0.5476175546646118,0.11762518435716629,0.9465647339820862
1701290501023632600,4.985632568359375,0.5338320136070251,0.05173209309577942,0.8388023972511292
1701290501033707500,4.99570751953125,0.5187058448791504,-0.04470416158437729,0.7179460525512695
1701290501043783700,5.00578369140625,0.5043744444847107,-0.1622670590877533,0.5876337885856628
1701290501053858600,5.015858642578125,0.4835674464702606,-0.28878557682037354,0.4515571594238281
1701290501063933700,5.02593359375,0.4605032205581665,-0.366690456867218,0.3128369152545929
1701290501074009600,5.036009521484375,0.43897369503974915,-0.3692673444747925,0.18490824103355408
1701290501084084500,5.04608447265625,0.4319536089897156,-0.31289994716644287,0.0887465551495552
1701290501094159600,5.05615966796875,0.42269593477249146,-0.22676904499530792,0.04308293014764786
1701290501104235800,5.06623583984375,0.3900874853134155,-0.16105057299137115,0.035479433834552765
1701290501114310400,5.076310302734375,0.3430914878845215,-0.15214575827121735,0.04923199862241745
1701290501124385500,5.086385498046875,0.3008491098880768,-0.17989741265773773,0.05428287386894226
1701290501134461700,5.096461669921875,0.28049805760383606,-0.20789974927902222,0.04457991570234299
1701290501144536600,5.10653662109375,0.27666646242141724,-0.2356877475976944,0.01827418990433216
1701290501154611700,5.11661181640625,0.265890508890152,-0.2552332282066345,-0.02138959988951683
1701290501164687600,5.1266875,0.2388734370470047,-0.2708175480365753,-0.059166956692934036
1701290501174762800,5.1367626953125,0.20217826962471008,-0.2928464114665985,-0.10387210547924042
1701290501184837600,5.146837646484375,0.17384997010231018,-0.3157173693180084,-0.14186769723892212
1701290501194912800,5.156912841796875,0.1576281189918518,-0.33082470297813416,-0.1712796539068222
1701290501204988700,5.16698876953125,0.15545916557312012,-0.346699595451355,-0.17485497891902924
1701290501215063600,5.1770634765625,0.15728317201137543,-0.3407471179962158,-0.1455194652080536
1701290501225139700,5.1871396484375,0.15419310331344604,-0.30209043622016907,-0.09376946091651917
1701290501235214600,5.197214599609375,0.1517038494348526,-0.25194576382637024,-0.030518587678670883
1701290501245289500,5.20728955078125,0.1469675898551941,-0.20653173327445984,0.04076322913169861
1701290501255365600,5.21736572265625,0.15493470430374146,-0.18175368010997772,0.11045575886964798
1701290501265440800,5.227440673828125,0.16228875517845154,-0.18105299770832062,0.17582838237285614
1701290501275515600,5.237515625,0.17355765402317047,-0.19811506569385529,0.22591231763362885
1701290501285590500,5.247590576171875,0.18059878051280975,-0.20836091041564941,0.2649132311344147
1701290501295666700,5.257666748046875,0.1934828907251358,-0.21380974352359772,0.29877105355262756
1701290501305741600,5.267741455078125,0.19220153987407684,-0.18392178416252136,0.32627686858177185
1701290501315816700,5.277816650390625,0.1925181895494461,-0.1293964982032776,0.34533071517944336
1701290501325892600,5.287892578125,0.17739173769950867,-0.06600715219974518,0.34989386796951294
1701290501335967500,5.297967529296875,0.1712038815021515,-0.01817651465535164,0.3492608368396759
1701290501346042600,5.308042724609375,0.16034187376499176,0.02011110633611679,0.34656593203544617
1701290501356118800,5.318118896484375,0.1529417484998703,0.06028995290398598,0.33866751194000244
1701290501366193400,5.328193359375,0.13315291702747345,0.10383208096027374,0.3178507089614868
1701290501376268500,5.3382685546875,0.10895010083913803,0.13355427980422974,0.2835071086883545
1701290501386344700,5.3483447265625,0.07464170455932617,0.14403124153614044,0.24715285003185272
1701290501396419600,5.358419677734375,0.049759529531002045,0.14257794618606567,0.2164713740348816
1701290501406494700,5.36849462890625,0.03932217136025429,0.12861116230487823,0.1967630386352539
1701290501416570600,5.378570556640625,0.027826640754938126,0.09422415494918823,0.17778028547763824
1701290501426645500,5.3886455078125,0.018071122467517853,0.029187459498643875,0.14964762330055237
1701290501436720600,5.398720703125,0.011914691887795925,-0.036094605922698975,0.11218813061714172
1701290501446796500,5.408796630859375,0.005586754996329546,-0.10295619070529938,0.0656973272562027
1701290501456871400,5.418871337890625,-0.00042346707778051496,-0.16467761993408203,0.02258581481873989
1701290501466946600,5.428946533203125,-0.006564975716173649,-0.23409704864025116,-0.01127680018544197
1701290501477022700,5.439022705078125,-0.014905462972819805,-0.2976541519165039,-0.04098516330122948
1701290501487097600,5.44909765625,-0.027358144521713257,-0.3500056564807892,-0.06966742128133774
1701290501497172500,5.45917236328125,-0.042386628687381744,-0.38267865777015686,-0.0894927904009819
1701290501507248600,5.46924853515625,-0.0648951381444931,-0.411467969417572,-0.10679081827402115
1701290501517323500,5.479323486328125,-0.09374143183231354,-0.4285223186016083,-0.11077410727739334
1701290501527398700,5.489398681640625,-0.12995821237564087,-0.432973712682724,-0.10110144317150116
1701290501537474600,5.499474609375,-0.16081200540065765,-0.4249490797519684,-0.0789247676730156
1701290501547549700,5.5095498046875,-0.17858940362930298,-0.4289272129535675,-0.059350524097681046
1701290501557624600,5.51962451171875,-0.1916378289461136,-0.4367939233779907,-0.04679025709629059
1701290501567700700,5.52970068359375,-0.19080229103565216,-0.4278987646102905,-0.05557486042380333
1701290501577775600,5.539775634765625,-0.1815161108970642,-0.392738938331604,-0.06518488377332687
1701290501587850500,5.5498505859375,-0.16963692009449005,-0.3406652510166168,-0.08053756505250931
1701290501597926700,5.5599267578125,-0.16091559827327728,-0.27550995349884033,-0.09643370658159256
1701290501608001800,5.570001708984375,-0.15321886539459229,-0.21070609986782074,-0.11164174228906631
1701290501618076700,5.58007666015625,-0.14860999584197998,-0.16195960342884064,-0.1301794797182083
1701290501628152600,5.590152587890625,-0.13902121782302856,-0.12037454545497894,-0.1421293020248413
1701290501638227700,5.600227783203125,-0.12047602981328964,-0.07135080546140671,-0.14677171409130096
1701290501648302600,5.610302490234375,-0.10349000245332718,-0.03371419757604599,-0.15978191792964935
1701290501658378500,5.62037841796875,-0.09496308863162994,-0.0013663768768310547,-0.17245909571647644
1701290501668453600,5.63045361328125,-0.08997403085231781,0.016554933041334152,-0.18312783539295197
1701290501678528500,5.640528564453125,-0.09104062616825104,0.016932833939790726,-0.19322122633457184
1701290501688604700,5.650604736328125,-0.09897471219301224,0.00152644794434309,-0.2068938910961151
1701290501698679800,5.6606796875,-0.11180795729160309,-0.029834669083356857,-0.21354247629642487
1701290501708754400,5.67075439453125,-0.12120784819126129,-0.07929809391498566,-0.21211794018745422
1701290501718830600,5.68083056640625,-0.12341241538524628,-0.1406424194574356,-0.2040906399488449
1701290501728905700,5.69090576171875,-0.125527486205101,-0.1899552345275879,-0.2043902426958084
1701290501738980600,5.700980712890625,-0.12830249965190887,-0.2244516909122467,-0.21656568348407745
1701290501749056500,5.711056396484375,-0.13800671696662903,-0.23778396844863892,-0.24143821001052856
1701290501759131600,5.721131591796875,-0.15178458392620087,-0.22014717757701874,-0.2889820337295532
1701290501769206500,5.73120654296875,-0.1673036515712738,-0.1746107041835785,-0.3402255177497864
1701290501779282700,5.74128271484375,-0.19170193374156952,-0.1333301067352295,-0.39281976222991943
1701290501789357600,5.751357666015625,-0.2280212938785553,-0.11226624995470047,-0.43939974904060364
1701290501799432400,5.761432373046875,-0.2767246663570404,-0.10174569487571716,-0.5018540620803833
1701290501809507600,5.771507568359375,-0.32844510674476624,-0.104407399892807,-0.5642372965812683
1701290501819583700,5.781583740234375,-0.3712801933288574,-0.07681598514318466,-0.6047386527061462
1701290501829658600,5.79165869140625,-0.39750221371650696,-0.020589590072631836,-0.5827758312225342
1701290501839733500,5.8017333984375,-0.42298653721809387,0.01772504299879074,-0.5187744498252869
1701290501849809700,5.8118095703125,-0.4329164922237396,0.015423105098307133,-0.4759751856327057
1701290501859884500,5.821884521484375,-0.4211048483848572,-0.05955792963504791,-0.5021575689315796
1701290501869959700,5.831959716796875,-0.39569780230522156,-0.22995449602603912,-0.5551440715789795
1701290501880035600,5.84203564453125,-0.375039666891098,-0.4687308371067047,-0.5852748155593872
1701290501890110500,5.8521103515625,-0.35226133465766907,-0.7099223732948303,-0.5644072890281677
1701290501900185600,5.862185546875,-0.3349084258079529,-0.7985116243362427,-0.4722752273082733
1701290501910261500,5.872261474609375,-0.3186776041984558,-0.6765358448028564,-0.3687603771686554
1701290501920336600,5.882336669921875,-0.29116368293762207,-0.4386971890926361,-0.26459428668022156
1701290501930412000,5.892412109375,-0.23255744576454163,-0.16849491000175476,-0.1578868329524994
1701290501940488200,5.90248828125,-0.1978287696838379,0.07004416733980179,-0.05252552404999733
1701290501950563000,5.91256298828125,-0.19787201285362244,0.22344858944416046,0.02996072545647621
1701290501960638000,5.922637939453125,-0.22279439866542816,0.3193546235561371,0.07802678644657135
1701290501970714000,5.932714111328125,-0.2584415078163147,0.37640026211738586,0.06964298337697983
1701290501980789200,5.942789306640625,-0.26094114780426025,0.3722100257873535,-0.022859781980514526
1701290501990864100,5.952864013671875,-0.23234358429908752,0.2920789420604706,-0.18091650307178497
1701290502000940000,5.96293994140625,-0.18959932029247284,0.1605161428451538,-0.3537929654121399
1701290502011015200,5.97301513671875,-0.13838577270507812,0.014402969740331173,-0.4900265336036682
1701290502021090000,5.983090087890625,-0.09278526902198792,-0.11719553917646408,-0.5639678239822388
1701290502031166000,5.993166015625,-0.06527426838874817,-0.2136552333831787,-0.5860720872879028
1701290502041241000,6.003240966796875,-0.05945739150047302,-0.2651570439338684,-0.5442740321159363
1701290502051316000,6.01331591796875,-0.06201891973614693,-0.2276880145072937,-0.4433259665966034
1701290502061392100,6.02339208984375,-0.053651802241802216,-0.09240634739398956,-0.32090339064598083
1701290502071467300,6.03346728515625,-0.017135970294475555,0.0827835351228714,-0.2447863519191742
1701290502081542000,6.0435419921875,0.04272869601845741,0.24603238701820374,-0.25173452496528625
1701290502091618000,6.0536181640625,0.08160258829593658,0.337276816368103,-0.3195450007915497
1701290502101693200,6.063693115234375,0.10993516445159912,0.3322266638278961,-0.3968794643878937
1701290502111768000,6.07376806640625,0.11112125962972641,0.26989930868148804,-0.4586896300315857
1701290502121844000,6.083843994140625,0.06839403510093689,0.1760132908821106,-0.4923783540725708
1701290502131919000,6.093919189453125,-0.0003840820863842964,0.06278672069311142,-0.5021951794624329
1701290502141994000,6.103993896484375,-0.059912919998168945,-0.054518070071935654,-0.49948087334632874
1701290502152070100,6.114070068359375,-0.10813874751329422,-0.15553471446037292,-0.48112794756889343
1701290502162145000,6.12414501953125,-0.13285420835018158,-0.19396014511585236,-0.43974748253822327
1701290502172220000,6.134219970703125,-0.13242004811763763,-0.15425048768520355,-0.3770235776901245
1701290502182296000,6.144296142578125,-0.12579862773418427,-0.05685628950595856,-0.3128294050693512
1701290502192371200,6.15437109375,-0.10171625763177872,0.05038155987858772,-0.2740258574485779
1701290502202446000,6.164446044921875,-0.07302815467119217,0.12066291272640228,-0.2716852128505707
1701290502212522000,6.17452197265625,-0.04647265002131462,0.131276473402977,-0.29490926861763
1701290502222597000,6.18459716796875,-0.033021289855241776,0.09603432565927505,-0.32734575867652893
1701290502232672000,6.194672119140625,-0.009391129948198795,0.030768048018217087,-0.37130796909332275
1701290502242748000,6.204747802734375,0.00881743524223566,-0.056851018220186234,-0.41864484548568726
1701290502252823000,6.214822998046875,0.009406080469489098,-0.14082923531532288,-0.45475509762763977
1701290502262898000,6.22489794921875,-0.011958862654864788,-0.20549210906028748,-0.4740278720855713
1701290502272974000,6.23497412109375,-0.03615687042474747,-0.24821388721466064,-0.4767461121082306
1701290502283049200,6.24504931640625,-0.048248954117298126,-0.25060832500457764,-0.4738920032978058
1701290502293123800,6.255123779296875,-0.046287454664707184,-0.1997910439968109,-0.4566067159175873
1701290502303200000,6.265199951171875,-0.025221586227416992,-0.1311699002981186,-0.43161454796791077
1701290502313275100,6.275275146484375,-0.008912811987102032,-0.05943375825881958,-0.4120130240917206
1701290502323350000,6.28535009765625,-0.00502140074968338,0.016285505145788193,-0.40530505776405334
1701290502333426000,6.295426025390625,-0.005598888732492924,0.07987030595541,-0.40600210428237915
1701290502343501000,6.3055009765625,0.004290226846933365,0.12561862170696259,-0.40417811274528503
1701290502353576200,6.315576171875,0.0190726425498724,0.13639762997627258,-0.38252928853034973
1701290502363652000,6.325652099609375,0.02226097881793976,0.1229606494307518,-0.35545238852500916
1701290502373727000,6.33572705078125,0.0211586095392704,0.09392975270748138,-0.3267017900943756
1701290502383802000,6.345802001953125,0.015784617513418198,0.0484650656580925,-0.3087552785873413
1701290502393878000,6.3558779296875,0.013349941000342369,-0.02005140297114849,-0.30276399850845337
1701290502403953200,6.365953125,0.007379400543868542,-0.09958670288324356,-0.3131127655506134
1701290502414028300,6.3760283203125,0.0012210990535095334,-0.16731342673301697,-0.3193693459033966
1701290502424104000,6.38610400390625,-0.0011669575469568372,-0.2085772305727005,-0.334994375705719
1701290502434179000,6.396178955078125,-0.0007088575512170792,-0.2337743490934372,-0.34125566482543945
1701290502444254200,6.406254150390625,-0.0025847882498055696,-0.24315480887889862,-0.34420087933540344
1701290502454329900,6.416329833984375,0.003058169735595584,-0.22209826111793518,-0.34477561712265015
1701290502464405000,6.426405029296875,0.0008195164846256375,-0.1794344186782837,-0.34031161665916443
1701290502474480000,6.436480224609375,-0.005524140782654285,-0.1332949995994568,-0.3412884473800659
1701290502484556000,6.44655615234375,-0.016916876658797264,-0.1003945842385292,-0.3344297409057617
1701290502494631200,6.456631103515625,-0.021432626992464066,-0.07378898561000824,-0.31832146644592285
1701290502504706000,6.4667060546875,-0.0298285074532032,-0.046255357563495636,-0.30035313963890076
1701290502514782000,6.476781982421875,-0.04048379883170128,-0.01724208891391754,-0.27962037920951843
1701290502524857000,6.486857177734375,-0.058114193379879,0.012931792996823788,-0.2592727839946747
1701290502534932200,6.49693212890625,-0.07019980996847153,0.04326178878545761,-0.25087788701057434
1701290502545008000,6.507008056640625,-0.07808889448642731,0.07519043236970901,-0.25088295340538025
1701290502555083000,6.5170830078125,-0.08821003139019012,0.09097745269536972,-0.25270751118659973
1701290502565158100,6.527158203125,-0.0974314957857132,0.0975450724363327,-0.251453697681427
1701290502575234000,6.537234130859375,-0.10430309921503067,0.10259851813316345,-0.24510565400123596
1701290502585309000,6.547308837890625,-0.09983804076910019,0.0998149886727333,-0.24212105572223663
1701290502595384000,6.557384033203125,-0.09359247982501984,0.10280194133520126,-0.2405908703804016
1701290502605460200,6.567460205078125,-0.07931820303201675,0.12275221198797226,-0.2432021051645279
1701290502615535000,6.57753515625,-0.0733100026845932,0.17234443128108978,-0.24335193634033203
1701290502625610200,6.5876103515625,-0.07575532048940659,0.23913225531578064,-0.23521624505519867
1701290502635684900,6.597684814453125,-0.09098245948553085,0.2895529270172119,-0.21651042997837067
1701290502645761000,6.607760986328125,-0.10082230716943741,0.29374128580093384,-0.2005905956029892
1701290502655836200,6.617836181640625,-0.10672879219055176,0.2673864960670471,-0.19417040050029755
1701290502665911000,6.6279111328125,-0.11427219957113266,0.23968642950057983,-0.20063655078411102
1701290502675987000,6.637987060546875,-0.1287522166967392,0.22778692841529846,-0.20148411393165588
1701290502686062000,6.64806201171875,-0.1471131145954132,0.22617144882678986,-0.19146209955215454
1701290502696137000,6.658136962890625,-0.1607494205236435,0.23500952124595642,-0.18571990728378296
1701290502706213000,6.668213134765625,-0.17337706685066223,0.23808999359607697,-0.18730182945728302
1701290502716288000,6.6782880859375,-0.18175001442432404,0.23791368305683136,-0.1946316361427307
1701290502726363100,6.688363037109375,-0.1946442425251007,0.24732261896133423,-0.20333564281463623
1701290502736439000,6.69843896484375,-0.20039065182209015,0.2643686830997467,-0.2024875283241272
1701290502746514200,6.70851416015625,-0.1986883580684662,0.2765643894672394,-0.186699777841568
1701290502756589000,6.718589111328125,-0.188536137342453,0.2835913896560669,-0.16273987293243408
1701290502766665000,6.7286650390625,-0.18089526891708374,0.27392545342445374,-0.15604574978351593
1701290502776740000,6.738739990234375,-0.17784911394119263,0.2724613547325134,-0.1615390181541443
1701290502786815200,6.748815185546875,-0.1789814978837967,0.28599047660827637,-0.16265647113323212
1701290502796891000,6.758890869140625,-0.17796358466148376,0.3246006667613983,-0.1306854635477066
1701290502806966000,6.768966064453125,-0.1680198758840561,0.3698965311050415,-0.09123952686786652
1701290502817041200,6.779041259765625,-0.1587359756231308,0.4090166389942169,-0.04498109593987465
1701290502827117000,6.789116943359375,-0.14949508011341095,0.4399966597557068,0.004440781194716692
1701290502837192000,6.79919189453125,-0.14043579995632172,0.47222664952278137,0.05780095234513283
1701290502847267000,6.80926708984375,-0.1348026841878891,0.5005030035972595,0.1022094339132309
1701290502857343000,6.819343017578125,-0.13060544431209564,0.5204088687896729,0.14270396530628204
1701290502867418000,6.829418212890625,-0.12596142292022705,0.5380014777183533,0.16664817929267883
1701290502877493200,6.8394931640625,-0.12189405411481857,0.5502085089683533,0.17333263158798218
1701290502887569000,6.84956884765625,-0.11375942826271057,0.5477706789970398,0.1765017956495285
1701290502897644000,6.85964404296875,-0.09904776513576508,0.5346856117248535,0.1823725700378418
1701290502907719200,6.86971923828125,-0.06095817685127258,0.488717645406723,0.1909617930650711
1701290502917795000,6.879795166015625,-0.014330673962831497,0.3988358676433563,0.2078295201063156
1701290502927870000,6.889869873046875,0.02512645348906517,0.30789875984191895,0.21429380774497986
1701290502937944300,6.8999443359375,0.04606262221932411,0.2578495740890503,0.21070626378059387
1701290502948020200,6.910020263671875,0.056546688079833984,0.2435889095067978,0.1945296972990036
1701290502958095400,6.920095458984375,0.08592092990875244,0.21830420196056366,0.18631768226623535
1701290502968170500,6.93017041015625,0.13103167712688446,0.17889395356178284,0.2013605535030365
1701290502978246100,6.94024609375,0.18290206789970398,0.18661285936832428,0.23419518768787384
1701290502988321300,6.9503212890625,0.2307199239730835,0.23049083352088928,0.27214470505714417
1701290502998396400,6.960396484375,0.26791876554489136,0.25411415100097656,0.3172140419483185
1701290503008472300,6.970472412109375,0.30052199959754944,0.25299909710884094,0.38168808817863464
1701290503018547200,6.980547119140625,0.3339764475822449,0.2785709500312805,0.47002893686294556
1701290503028622300,6.990622314453125,0.3684457540512085,0.3437883257865906,0.5867438316345215
1701290503038698500,7.000698486328125,0.40456423163414,0.4103493392467499,0.7254286408424377
1701290503048773400,7.0107734375,0.44022130966186523,0.4761296808719635,0.8729323744773865
1701290503058848300,7.02084814453125,0.4790768325328827,0.5161944031715393,1.0174391269683838
1701290503068924400,7.03092431640625,0.522132158279419,0.5138500332832336,1.1543283462524414
1701290503078999300,7.040999267578125,0.5436585545539856,0.46366745233535767,1.290625810623169
1701290503089074400,7.051074462890625,0.5453323721885681,0.4042552411556244,1.4190675020217896
1701290503099150300,7.061150390625,0.5357178449630737,0.35456225275993347,1.5324618816375732
1701290503109225200,7.07122509765625,0.5256769061088562,0.3180696666240692,1.6019389629364014
1701290503119300400,7.08130029296875,0.5205840468406677,0.26689738035202026,1.6239981651306152
1701290503129376500,7.09137646484375,0.5125194191932678,0.19127076864242554,1.5935277938842773
1701290503139451400,7.101451416015625,0.5212987661361694,0.11292025446891785,1.5339796543121338
1701290503149526300,7.1115263671875,0.5473830699920654,0.01357982400804758,1.4594409465789795
1701290503159602400,7.1216025390625,0.5707935094833374,-0.11712467670440674,1.375012755393982
1701290503169677300,7.13167724609375,0.5836097002029419,-0.278976708650589,1.2414305210113525
1701290503179752400,7.14175244140625,0.5772278904914856,-0.4160858690738678,1.0593045949935913
1701290503189828400,7.151828369140625,0.5617187023162842,-0.4637647271156311,0.8697964549064636
1701290503199903200,7.1619033203125,0.5395926833152771,-0.45562097430229187,0.7072678804397583
1701290503209978400,7.171978271484375,0.5272883772850037,-0.37459030747413635,0.5996109247207642
1701290503220054300,7.18205419921875,0.5171989798545837,-0.24259579181671143,0.5390849113464355
1701290503230129200,7.192129150390625,0.5120066404342651,-0.08527353405952454,0.5245757699012756
1701290503240204300,7.202204345703125,0.5115880370140076,0.06273967027664185,0.5437063574790955
1701290503250280400,7.212280517578125,0.49331793189048767,0.14732564985752106,0.5888264179229736
1701290503260355300,7.222355224609375,0.46910834312438965,0.14807617664337158,0.6320807933807373
1701290503270430200,7.23243017578125,0.44679689407348633,0.07496894150972366,0.6206387877464294
1701290503280506400,7.24250634765625,0.4279230833053589,-0.05335720628499985,0.5310804843902588
1701290503290581200,7.252581298828125,0.4243869185447693,-0.2258501499891281,0.37190037965774536
1701290503300656400,7.262656494140625,0.40618953108787537,-0.40194034576416016,0.19789232313632965
1701290503310732300,7.272732177734375,0.38010919094085693,-0.5592173337936401,0.05805720016360283
1701290503320807200,7.28280712890625,0.3430044651031494,-0.6667144298553467,-0.02125384472310543
1701290503330882300,7.29288232421875,0.3117075264453888,-0.7011758089065552,-0.046135228127241135
1701290503340958500,7.30295849609375,0.29210007190704346,-0.6805717945098877,-0.029637401923537254
1701290503351033000,7.313033203125,0.28039148449897766,-0.6248525977134705,0.005473180674016476
1701290503361108200,7.323108154296875,0.2700067460536957,-0.5464738607406616,0.03959706425666809
1701290503371184400,7.333184326171875,0.2650575339794159,-0.46423229575157166,0.06305365264415741
1701290503381259300,7.34325927734375,0.2605072259902954,-0.4084322154521942,0.0757305696606636
1701290503391334400,7.35333447265625,0.2521861791610718,-0.39568740129470825,0.07598729431629181
1701290503401410300,7.363410400390625,0.22968633472919464,-0.4216848313808441,0.07964128255844116
1701290503411485400,7.3734853515625,0.19909007847309113,-0.4638727605342865,0.09442608803510666
1701290503421560300,7.383560302734375,0.16263097524642944,-0.5173753499984741,0.11661751568317413
1701290503431636200,7.39363623046875,0.12870816886425018,-0.5578998923301697,0.1449788510799408
1701290503441711400,7.40371142578125,0.09748230874538422,-0.5852053761482239,0.1708706021308899
1701290503451786200,7.4137861328125,0.06580347567796707,-0.5776529312133789,0.19901356101036072
1701290503461862400,7.4238623046875,0.03518152981996536,-0.5312289595603943,0.22398029267787933
1701290503471937500,7.4339375,0.004429745953530073,-0.45613932609558105,0.26364222168922424
1701290503482012200,7.44401220703125,-0.02676551416516304,-0.3592786192893982,0.2939356565475464
1701290503492088300,7.45408837890625,-0.04407579079270363,-0.27612727880477905,0.31728649139404297
1701290503502163500,7.46416357421875,-0.050860922783613205,-0.19648350775241852,0.33613747358322144
1701290503512238300,7.47423828125,-0.05153337121009827,-0.13535571098327637,0.3403599262237549
1701290503522314200,7.484314208984375,-0.05360832065343857,-0.07746089994907379,0.3418770432472229
1701290503532389400,7.494389404296875,-0.03498616814613342,-0.04293088614940643,0.34008046984672546
1701290503542464300,7.50446435546875,-0.010060662403702736,-0.02755543775856495,0.3338472545146942
1701290503552540400,7.51454052734375,0.009381745010614395,-0.033667393028736115,0.3147622346878052
1701290503562615300,7.524615234375,0.012749693356454372,-0.03513236716389656,0.2791964113712311
1701290503572690200,7.534690185546875,0.01496038306504488,-0.03628231957554817,0.22591321170330048
1701290503582766300,7.544766357421875,0.009155023843050003,-0.04368411749601364,0.16980205476284027
1701290503592841500,7.554841552734375,-0.002705630846321583,-0.053010243922472,0.11825977265834808
1701290503602916400,7.564916259765625,-0.015790078788995743,-0.0654430016875267,0.06802769750356674
1701290503612992300,7.5749921875,-0.0319642573595047,-0.081522636115551,0.02810904011130333
1701290503623067400,7.5850673828125,-0.05078187584877014,-0.10270288586616516,-0.00886867381632328
1701290503633142300,7.595142333984375,-0.06320126354694366,-0.1249442771077156,-0.03882471099495888
1701290503643218200,7.60521826171875,-0.07166454941034317,-0.1428750604391098,-0.06870116293430328
1701290503653293300,7.615293212890625,-0.0758582279086113,-0.16340936720371246,-0.09698446094989777
1701290503663368200,7.6253681640625,-0.08622927218675613,-0.17115913331508636,-0.12786664068698883
1701290503673444400,7.6354443359375,-0.10429935902357101,-0.16228707134723663,-0.16794587671756744
1701290503683519500,7.64551953125,-0.12469138950109482,-0.14342451095581055,-0.22261866927146912
1701290503693594000,7.655593994140625,-0.1418226957321167,-0.12068164348602295,-0.2809687852859497
1701290503703670300,7.665670166015625,-0.15155209600925446,-0.10454494506120682,-0.33507734537124634
1701290503713745400,7.675745361328125,-0.16816888749599457,-0.109079509973526,-0.38186269998550415
1701290503723820300,7.6858203125,-0.1806943714618683,-0.1351618766784668,-0.4245354235172272
1701290503733896200,7.695896240234375,-0.190858855843544,-0.17450502514839172,-0.4473171830177307
1701290503743971300,7.705971435546875,-0.19176416099071503,-0.2080405205488205,-0.45143452286720276
1701290503754046200,7.716046142578125,-0.1775287687778473,-0.2277045100927353,-0.4366036355495453
1701290503764122400,7.726122314453125,-0.15796861052513123,-0.2198914736509323,-0.40605661273002625
1701290503774197200,7.736197265625,-0.13691525161266327,-0.18572817742824554,-0.37703773379325867
1701290503784272400,7.7462724609375,-0.11006035655736923,-0.14808160066604614,-0.3457188904285431
1701290503794348300,7.756348388671875,-0.08845626562833786,-0.10195058584213257,-0.3145796060562134
1701290503804423400,7.76642333984375,-0.07342623174190521,-0.06623940169811249,-0.27297067642211914
1701290503814498300,7.776498291015625,-0.0602441169321537,-0.04260890930891037,-0.23295347392559052
1701290503824574200,7.78657421875,-0.05573956295847893,-0.01711335778236389,-0.20392201840877533
1701290503834649300,7.7966494140625,-0.0613337978720665,0.006912882439792156,-0.19867318868637085
1701290503844724500,7.806724365234375,-0.08228698372840881,0.02811295911669731,-0.2085428088903427
1701290503854800100,7.816800048828125,-0.11642178893089294,0.03309759870171547,-0.24232901632785797
1701290503864875300,7.826875244140625,-0.1574295461177826,0.023446422070264816,-0.2809077203273773
1701290503874950400,7.836950439453125,-0.2095974087715149,0.0039941612631082535,-0.3320028781890869
1701290503885026300,7.8470263671875,-0.26148855686187744,-0.032855622470378876,-0.38291871547698975
1701290503895101200,7.85710107421875,-0.3102954626083374,-0.016559474170207977,-0.4079306125640869
1701290503905176300,7.86717626953125,-0.3451697826385498,0.03915592283010483,-0.3898724615573883
1701290503915252200,7.877252197265625,-0.3606520891189575,0.07100865989923477,-0.3364737033843994
1701290503925327400,7.887327392578125,-0.354144811630249,0.05747144669294357,-0.3361510634422302
1701290503935402800,7.89740283203125,-0.3212891221046448,-0.0037005669437348843,-0.39919954538345337
1701290503945478700,7.907478759765625,-0.2647548317909241,-0.1020670011639595,-0.49283766746520996
1701290503955553500,7.917553466796875,-0.19078126549720764,-0.25959324836730957,-0.5493713021278381
1701290503965628700,7.927628662109375,-0.10811670124530792,-0.4867457449436188,-0.5305997133255005
1701290503975704600,7.93770458984375,-0.04392332583665848,-0.6497517228126526,-0.504487931728363
1701290503985779500,7.947779541015625,-0.0515914149582386,-0.5615696310997009,-0.5169683694839478
1701290503995854600,7.9578544921875,-0.08102574199438095,-0.30213457345962524,-0.5182410478591919
1701290504005930800,7.9679306640625,-0.07041208446025848,-0.04607474058866501,-0.43148311972618103
1701290504016005600,7.978005615234375,-0.04914461076259613,0.13189712166786194,-0.2720319330692291
1701290504026080500,7.98808056640625,-0.053905781358480453,0.22183524072170258,-0.07145670801401138
1701290504036156700,7.99815673828125,-0.06351180374622345,0.2932654917240143,0.11296719312667847
1701290504046231600,8.0082314453125,-0.0916118174791336,0.41174426674842834,0.22919318079948425
1701290504056306700,8.018306640625,-0.14141720533370972,0.5282492637634277,0.2009034901857376
1701290504066382600,8.028382568359374,-0.18591921031475067,0.5178818106651306,0.03808549791574478
1701290504076457500,8.03845751953125,-0.20735712349414825,0.38952067494392395,-0.19942080974578857
1701290504086532600,8.04853271484375,-0.20331019163131714,0.23949308693408966,-0.45515647530555725
1701290504096608500,8.0586083984375,-0.18507365882396698,0.08085257560014725,-0.6697044372558594
1701290504106683400,8.068683349609374,-0.16712217032909393,-0.1164923757314682,-0.7970600724220276
1701290504116758500,8.078758544921875,-0.17566026747226715,-0.3409225344657898,-0.8257697820663452
1701290504126834700,8.088834716796875,-0.19450385868549347,-0.5577183961868286,-0.7499345541000366
1701290504136909800,8.098909912109375,-0.19645461440086365,-0.6567589640617371,-0.5880215167999268
1701290504146984700,8.108984619140625,-0.17627742886543274,-0.5312852263450623,-0.39151424169540405
1701290504157060600,8.119060546875,-0.10659661144018173,-0.18739360570907593,-0.2380749136209488
1701290504167135700,8.1291357421875,-0.005963310599327087,0.21051722764968872,-0.17963087558746338
1701290504177211600,8.139211669921876,0.08492797613143921,0.49145302176475525,-0.2175508290529251
1701290504187286500,8.14928662109375,0.15405981242656708,0.5644169449806213,-0.29390430450439453
1701290504197361700,8.159361572265626,0.2075347602367401,0.3866858184337616,-0.3770902752876282
1701290504207436500,8.1694365234375,0.23568864166736603,0.028902381658554077,-0.4606035053730011
1701290504217512700,8.1795126953125,0.19846376776695251,-0.34401607513427734,-0.5465935468673706
1701290504227587600,8.189587646484375,0.1188240572810173,-0.6025384068489075,-0.6139723062515259
1701290504237662500,8.199662353515626,0.04441959783434868,-0.7149427533149719,-0.6524240970611572
1701290504247738600,8.209738525390625,-0.007502351887524128,-0.7129261493682861,-0.669276773929596
1701290504257813800,8.219813720703126,-0.04431762173771858,-0.5953657031059265,-0.6507041454315186
1701290504267889400,8.229889404296875,-0.06421315670013428,-0.3953745663166046,-0.5976192355155945
1701290504277964500,8.239964599609374,-0.08423133939504623,-0.13698403537273407,-0.5344354510307312
1701290504288039700,8.250039794921875,-0.10832946002483368,0.08978211879730225,-0.5030815005302429
1701290504298115600,8.260115478515624,-0.1156664714217186,0.19774480164051056,-0.5188657641410828
1701290504308190500,8.2701904296875,-0.10238721966743469,0.2070716768503189,-0.5630192160606384
1701290504318265600,8.280265625,-0.0762948989868164,0.11733271926641464,-0.6262066960334778
1701290504328341800,8.290341796875,-0.050375696271657944,-0.012352285906672478,-0.6980172395706177
1701290504338416600,8.300416748046874,-0.016871266067028046,-0.13467766344547272,-0.7430313229560852
1701290504348491800,8.31049169921875,0.014623715542256832,-0.24134036898612976,-0.7593458890914917
1701290504358566400,8.32056640625,0.0409352146089077,-0.2927212715148926,-0.7387210726737976
1701290504368642600,8.330642578125,0.04826539382338524,-0.2757626175880432,-0.6847461462020874
1701290504378717700,8.3407177734375,0.04456439986824989,-0.19726009666919708,-0.6116623878479004
1701290504388792600,8.35079248046875,0.04098449647426605,-0.08041247725486755,-0.5383581519126892
1701290504398868500,8.360868408203125,0.01924804411828518,0.033711425960063934,-0.4741716980934143
1701290504408943600,8.370943603515625,-0.016317039728164673,0.12222481518983841,-0.4316560924053192
1701290504419019800,8.381019775390625,-0.06513916701078415,0.20511703193187714,-0.4111156463623047
1701290504429094700,8.3910947265625,-0.1074526309967041,0.29034945368766785,-0.39667901396751404
1701290504439169500,8.40116943359375,-0.13306479156017303,0.3696000874042511,-0.3831852972507477
1701290504449244400,8.411244384765626,-0.1472652703523636,0.38700515031814575,-0.35939472913742065
1701290504459320600,8.421320556640625,-0.15100355446338654,0.3433935046195984,-0.33230504393577576
1701290504469395700,8.431395751953126,-0.152338907122612,0.29354485869407654,-0.3073364198207855
1701290504479471600,8.4414716796875,-0.17406845092773438,0.28668349981307983,-0.3005935549736023
1701290504489546500,8.45154638671875,-0.19505228102207184,0.3124372065067291,-0.30831775069236755
1701290504499621600,8.46162158203125,-0.21116946637630463,0.33036693930625916,-0.312653124332428
1701290504509697800,8.47169775390625,-0.2216763198375702,0.3389139771461487,-0.309807151556015
1701290504519772400,8.4817724609375,-0.226287841796875,0.34456413984298706,-0.3023497760295868
1701290504529847600,8.49184765625,-0.22618943452835083,0.35054492950439453,-0.2992377281188965
1701290504539923700,8.501923828125,-0.22395184636116028,0.3406637907028198,-0.30130434036254883
1701290504549998600,8.51199853515625,-0.21394000947475433,0.30941006541252136,-0.3182753622531891
1701290504560073700,8.52207373046875,-0.19864708185195923,0.288555383682251,-0.33294540643692017
1701290504570149600,8.532149658203124,-0.18217183649539948,0.29205915331840515,-0.34697723388671875
1701290504580224500,8.542224609375,-0.17066431045532227,0.32604748010635376,-0.34141069650650024
1701290504590299600,8.552299560546874,-0.16543784737586975,0.3953871428966522,-0.3207738399505615
1701290504600375600,8.56237548828125,-0.1744273453950882,0.4613371193408966,-0.29147347807884216
1701290504610450400,8.572450439453124,-0.19324716925621033,0.49001505970954895,-0.2630402743816376
1701290504620525600,8.582525634765625,-0.21899861097335815,0.49544286727905273,-0.2317473292350769
1701290504630601700,8.592601806640625,-0.2462249994277954,0.49872127175331116,-0.19045352935791016
1701290504640676600,8.602676513671875,-0.2841806411743164,0.4761611223220825,-0.1553218960762024
1701290504650751500,8.61275146484375,-0.3111923038959503,0.4044143557548523,-0.12942907214164734
1701290504660827600,8.62282763671875,-0.31902652978897095,0.3174128830432892,-0.12896274030208588
1701290504670902800,8.63290283203125,-0.31814342737197876,0.24246659874916077,-0.13420811295509338
1701290504680977700,8.642977783203126,-0.31165915727615356,0.20266538858413696,-0.14249667525291443
1701290504691053600,8.653053466796875,-0.2933228313922882,0.20210795104503632,-0.14934080839157104
1701290504701128700,8.663128662109376,-0.2571038603782654,0.24865521490573883,-0.1720205545425415
1701290504711203600,8.67320361328125,-0.22025687992572784,0.32089224457740784,-0.20059628784656525
1701290504721279700,8.68327978515625,-0.18949738144874573,0.3765219449996948,-0.21479812264442444
1701290504731354600,8.693354736328125,-0.1702594757080078,0.41238951683044434,-0.19763030111789703
1701290504741429500,8.703429443359376,-0.15460355579853058,0.43173500895500183,-0.15271875262260437
1701290504751505700,8.713505615234375,-0.14280205965042114,0.45027703046798706,-0.10943576693534851
1701290504761580800,8.723580810546874,-0.14193546772003174,0.5000389814376831,-0.07103724777698517
1701290504771655700,8.73365576171875,-0.14868995547294617,0.5612680315971375,-0.054791081696748734
1701290504781731600,8.743731689453124,-0.16490380465984344,0.6091035008430481,-0.03298618271946907
1701290504791806700,8.753806640625,-0.18627041578292847,0.6443701982498169,-0.012476428411900997
1701290504801881600,8.763881591796874,-0.19178982079029083,0.6734297871589661,0.011180431582033634
1701290504811957500,8.77395751953125,-0.1856575459241867,0.742423415184021,0.017645593732595444
1701290504822032600,8.78403271484375,-0.18997186422348022,0.8642169833183289,0.02797093614935875
1701290504832107500,8.794107421875,-0.19643890857696533,0.9661986827850342,0.06741652637720108
1701290504842183700,8.80418359375,-0.16982753574848175,0.9099276661872864,0.13321419060230255
1701290504852258600,8.814258544921875,-0.12525226175785065,0.6829308271408081,0.19385947287082672
1701290504862333400,8.82433349609375,-0.0908503606915474,0.42324361205101013,0.2174883782863617
1701290504872409600,8.83440966796875,-0.07189517468214035,0.27043023705482483,0.19378772377967834
1701290504882484700,8.844484619140625,-0.04785669222474098,0.2606380581855774,0.1447935551404953
1701290504892559600,8.8545595703125,-0.0005115536041557789,0.2828303277492523,0.15611064434051514
1701290504902635500,8.864635498046875,0.07545697689056396,0.2873252034187317,0.24826373159885406
1701290504912710700,8.874710693359376,0.16913093626499176,0.2871357798576355,0.392472505569458
1701290504922785500,8.88478564453125,0.27579984068870544,0.27766212821006775,0.541917622089386
1701290504932862000,8.894862060546876,0.38249021768569946,0.23128646612167358,0.6745445728302002
1701290504942936800,8.904936767578125,0.47429952025413513,0.1751193404197693,0.8062418699264526
1701290504953012000,8.915011962890626,0.5467640161514282,0.12843182682991028,0.9587156772613525
1701290504963088100,8.925088134765625,0.6014879941940308,0.08935979753732681,1.1458560228347778
1701290504973163000,8.9351630859375,0.6477769017219543,0.046465665102005005,1.3234691619873047
1701290504983238000,8.94523779296875,0.7069624066352844,0.02873966470360756,1.4844762086868286
1701290504993314000,8.95531396484375,0.7618102431297302,0.07395002990961075,1.6208504438400269
1701290505003389000,8.965388916015625,0.8031238317489624,0.18180060386657715,1.7408431768417358
1701290505013464000,8.975464111328124,0.8349200487136841,0.31430956721305847,1.839616060256958
1701290505023540000,8.9855400390625,0.8559494614601135,0.40413185954093933,1.8813138008117676
1701290505033614800,8.99561474609375,0.8820610642433167,0.3786942660808563,1.8677833080291748
1701290505043690000,9.00568994140625,0.8898529410362244,0.2517768144607544,1.7997758388519287
1701290505053766000,9.015765869140624,0.8777053952217102,0.06550700962543488,1.6714729070663452
1701290505063840800,9.0258408203125,0.8551657795906067,-0.20454737544059753,1.477368950843811
1701290505073916000,9.035916015625,0.8366365432739258,-0.5533236265182495,1.2041549682617188
1701290505083992000,9.045991943359375,0.8318926095962524,-0.8571977615356445,0.9172049164772034
1701290505094067000,9.05606689453125,0.8010932207107544,-0.9630409479141235,0.7057875394821167
1701290505104141800,9.066141845703125,0.7465692162513733,-0.8944799900054932,0.5852179527282715
1701290505114218000,9.076218017578125,0.6830122470855713,-0.6748543381690979,0.5489818453788757
1701290505124292900,9.08629296875,0.6486892104148865,-0.3783116340637207,0.592448890209198
1701290505134368000,9.096367919921875,0.6300818920135498,-0.06631791591644287,0.7078039646148682
1701290505144444000,9.10644384765625,0.6086927652359009,0.22599144279956818,0.876973032951355
1701290505154518800,9.116518798828125,0.5751882791519165,0.43803831934928894,1.0514856576919556
1701290505164594000,9.126593994140626,0.5437816381454468,0.5424478650093079,1.155595064163208
1701290505174670000,9.136670166015625,0.5401102304458618,0.5562818646430969,1.1276640892028809
1701290505184745000,9.146744873046876,0.5600746273994446,0.4623817503452301,0.9673852324485779
1701290505194819800,9.15681982421875,0.5801330208778381,0.2669937312602997,0.7044705152511597
1701290505204896000,9.16689599609375,0.5496834516525269,0.02472277358174324,0.43872910737991333
1701290505214971000,9.176970947265625,0.47477588057518005,-0.21084891259670258,0.23512209951877594
1701290505225046000,9.1870458984375,0.4092802405357361,-0.3768717050552368,0.1190122738480568
1701290505235122000,9.197121826171875,0.36573803424835205,-0.42238548398017883,0.0834459587931633
1701290505245197000,9.207197021484374,0.3453310430049896,-0.3878844976425171,0.08871874958276749
1701290505255272000,9.21727197265625,0.3342399597167969,-0.30992159247398376,0.10412803292274475
1701290505265347800,9.227347900390624,0.33665332198143005,-0.264739990234375,0.10444813966751099
1701290505275423000,9.237423095703125,0.3253600001335144,-0.29368534684181213,0.09657060354948044
1701290505285497900,9.247497802734374,0.29952096939086914,-0.40121713280677795,0.07230015099048615
1701290505295574000,9.257573974609375,0.26181796193122864,-0.5641655921936035,0.032907918095588684
1701290505305649200,9.267649169921874,0.2102852761745453,-0.7453620433807373,-0.018136361613869667
1701290505315723800,9.277723876953125,0.15210773050785065,-0.9079147577285767,-0.07201821357011795
1701290505325800000,9.287800048828124,0.09100683033466339,-1.0146123170852661,-0.11030860990285873
1701290505335875000,9.297875,0.036621786653995514,-1.047547459602356,-0.12997271120548248
1701290505345950000,9.307949951171874,-0.008668729104101658,-1.0186476707458496,-0.13438476622104645
1701290505356025900,9.31802587890625,-0.0379902608692646,-0.9435831308364868,-0.11083217710256577
1701290505366101000,9.32810107421875,-0.04669826477766037,-0.8529517650604248,-0.062125883996486664
1701290505376175900,9.33817578125,-0.039259545505046844,-0.7378303408622742,-0.010745776817202568
1701290505386252000,9.348251953125,-0.027690507471561432,-0.6007624864578247,0.0269645843654871
1701290505396327000,9.358326904296876,-0.023717720061540604,-0.45838674902915955,0.03994390368461609
1701290505406401800,9.36840185546875,-0.0272448118776083,-0.3320663869380951,0.05366797000169754
1701290505416478000,9.37847802734375,-0.02080957032740116,-0.24340640008449554,0.08282395452260971
1701290505426553000,9.388552978515625,-0.019702496007084846,-0.17367231845855713,0.12398657202720642
1701290505436628000,9.3986279296875,-0.027456650510430336,-0.10778722167015076,0.1601753681898117
1701290505446703900,9.408703857421875,-0.031006112694740295,-0.03644779324531555,0.17322379350662231
1701290505456779000,9.418779052734376,-0.03354168310761452,0.012800296768546104,0.16159726679325104
1701290505466854000,9.42885400390625,-0.03462159261107445,0.02185903862118721,0.13101619482040405
1701290505476929800,9.4389296875,-0.0342404805123806,0.01725282520055771,0.10180186480283737
1701290505487005000,9.4490048828125,-0.04090104624629021,-0.010098638013005257,0.08291979134082794
1701290505497079800,9.459079833984376,-0.04926242306828499,-0.05207034945487976,0.061184268444776535
1701290505507156000,9.469156005859375,-0.05360603705048561,-0.08865977823734283,0.0323968306183815
1701290505517231000,9.479231201171874,-0.06310400366783142,-0.11426933109760284,-0.009641227312386036
1701290505527305700,9.4893056640625,-0.05831324681639671,-0.13906095921993256,-0.06122506037354469
1701290505537382000,9.4993818359375,-0.047949548810720444,-0.19073894619941711,-0.11285468190908432
1701290505547457000,9.50945703125,-0.02205456979572773,-0.28359565138816833,-0.14695674180984497
1701290505557532000,9.519531982421874,0.008882825262844563,-0.4159552752971649,-0.16930332779884338
1701290505567607800,9.52960791015625,0.04601208493113518,-0.5456523299217224,-0.1847510039806366
1701290505577683000,9.539682861328124,0.09257664531469345,-0.6466699838638306,-0.19772940874099731
1701290505587757800,9.5497578125,0.1266014575958252,-0.7100608944892883,-0.2162381112575531
1701290505597834000,9.559833984375,0.14134648442268372,-0.732526421546936,-0.23843087255954742
1701290505607908900,9.569908935546875,0.14984676241874695,-0.7059110403060913,-0.2658177614212036
1701290505617984000,9.57998388671875,0.15536591410636902,-0.6086956262588501,-0.28829824924468994
1701290505628060000,9.590059814453125,0.15333418548107147,-0.453299343585968,-0.3023163378238678
1701290505638135000,9.600135009765625,0.14228445291519165,-0.2819940745830536,-0.296024888753891
1701290505648210200,9.610210205078126,0.12430332601070404,-0.15843908488750458,-0.2637620270252228
1701290505658285800,9.620285888671875,0.09836422652006149,-0.09147080034017563,-0.22966468334197998
1701290505668361000,9.63036083984375,0.07817613333463669,-0.05294843763113022,-0.20623260736465454
1701290505678436000,9.64043603515625,0.05629826709628105,-0.0139975780621171,-0.22093431651592255
1701290505688511700,9.65051171875,0.009879630990326405,0.03265954554080963,-0.2625899016857147
1701290505698587000,9.6605869140625,-0.056520331650972366,0.05255286023020744,-0.3111474812030792
1701290505708662000,9.670662109375,-0.1181996762752533,0.025789957493543625,-0.34791800379753113
1701290505718738000,9.680738037109375,-0.17206557095050812,0.001242268830537796,-0.38139528036117554
1701290505728813000,9.69081298828125,-0.22197027504444122,0.039555568248033524,-0.4135042130947113
1701290505738888000,9.700887939453125,-0.2883726954460144,0.1505739539861679,-0.4413560628890991
1701290505748963800,9.7109638671875,-0.37818780541419983,0.25556641817092896,-0.5016041994094849
1701290505759039000,9.7210390625,-0.4817138612270355,0.35666248202323914,-0.5772730708122253
1701290505769115000,9.731114990234374,-0.5530972480773926,0.5110735893249512,-0.557195246219635
1701290505779189800,9.741189697265625,-0.5833625793457031,0.6429135203361511,-0.43565794825553894
1701290505789265000,9.751264892578124,-0.5780266523361206,0.6245624423027039,-0.38405174016952515
1701290505799341000,9.761341064453125,-0.5608460307121277,0.4002169966697693,-0.4732436239719391
1701290505809416000,9.771416015625,-0.5361508131027222,0.034734901040792465,-0.5631762146949768
1701290505819490800,9.78149072265625,-0.4747543931007385,-0.3874039351940155,-0.4508092701435089
1701290505829567000,9.79156689453125,-0.3753148913383484,-0.750977635383606,-0.17275609076023102
1701290505839642000,9.80164208984375,-0.29948562383651733,-0.8118429780006409,-0.06355904042720795
1701290505849717000,9.811717041015624,-0.2984350323677063,-0.4937925636768341,-0.15712840855121613
1701290505859793000,9.82179296875,-0.3017165958881378,0.031225688755512238,-0.18137863278388977
1701290505869868000,9.831867919921875,-0.26720497012138367,0.5325359106063843,-0.09215608984231949
1701290505879943000,9.84194287109375,-0.22956730425357819,0.871239185333252,0.015461426228284836
1701290505890018800,9.852018798828125,-0.21424348652362823,0.9866730570793152,0.09961864352226257
1701290505900094000,9.862093994140626,-0.24299821257591248,0.9623985886573792,0.1293376237154007
1701290505910168800,9.8721689453125,-0.2882826030254364,0.8533844947814941,0.08581490814685822
1701290505920245000,9.882244873046876,-0.31045618653297424,0.6535625457763672,-0.0685526505112648
1701290505930320100,9.892320068359375,-0.3203732669353485,0.37661588191986084,-0.32013562321662903
1701290505940395500,9.9023955078125,-0.3153769373893738,0.0375002920627594,-0.5988160371780396
1701290505950471700,9.9124716796875,-0.3143734633922577,-0.33856096863746643,-0.8206366300582886
1701290505960546800,9.922546875,-0.3438208997249603,-0.6636640429496765,-0.9203967452049255
1701290505970621700,9.93262158203125,-0.3840756416320801,-0.8275858163833618,-0.8886340260505676
1701290505980697600,9.942697509765624,-0.3770320415496826,-0.6982384324073792,-0.7359512448310852
1701290505990772700,9.952772705078125,-0.2982429563999176,-0.2631887197494507,-0.5241367220878601
1701290506000847600,9.96284765625,-0.14852595329284668,0.27164891362190247,-0.35694724321365356
1701290506010923500,9.972923583984375,-0.005467336159199476,0.5723634958267212,-0.3416766822338104
1701290506020998700,9.98299853515625,0.05472135916352272,0.5467639565467834,-0.4586385190486908
1701290506031073800,9.99307373046875,0.07155732810497284,0.2515317499637604,-0.6007605195045471
1701290506041149700,10.003149658203125,0.07630178332328796,-0.17909769713878632,-0.7114896774291992
1701290506051224800,10.013224853515625,0.020943984389305115,-0.5745939016342163,-0.7643797993659973
1701290506061299700,10.0232998046875,-0.0725640133023262,-0.8356192111968994,-0.7896093726158142
1701290506071375600,10.033375732421876,-0.1753804236650467,-0.9354406595230103,-0.8040493130683899
1701290506081450800,10.04345068359375,-0.23162105679512024,-0.8881245255470276,-0.7969357371330261
1701290506091526000,10.05352587890625,-0.21692971885204315,-0.7361485958099365,-0.7567806243896484
1701290506101601500,10.0636015625,-0.18219418823719025,-0.43900066614151,-0.6823267340660095
1701290506111676700,10.0736767578125,-0.18543925881385803,-0.00026912055909633636,-0.5707945823669434
1701290506121751800,10.083751708984375,-0.20235402882099152,0.40416955947875977,-0.45624983310699463
1701290506131827700,10.09382763671875,-0.19531209766864777,0.6346360445022583,-0.3712047338485718
1701290506141902600,10.103902587890625,-0.16536107659339905,0.710113525390625,-0.31493130326271057
1701290506151977700,10.113977783203126,-0.1298787146806717,0.6729427576065063,-0.27719801664352417
1701290506162053600,10.1240537109375,-0.07473254948854446,0.5362051725387573,-0.27163833379745483
1701290506172128800,10.134128662109376,-0.017672987654805183,0.330941766500473,-0.2972313165664673
1701290506182203600,10.14420361328125,0.023689452558755875,0.14960773289203644,-0.34088045358657837
1701290506192279600,10.154279541015624,0.04446930065751076,0.04530316963791847,-0.3827008605003357
1701290506202354700,10.164354736328125,0.05826137959957123,0.0108387041836977,-0.4074186086654663
1701290506212429800,10.174429931640624,0.0737023875117302,0.02744937315583229,-0.4179879128932953
1701290506222505700,10.184505615234375,0.06893719732761383,0.03804701566696167,-0.42044010758399963
1701290506232580600,10.19458056640625,0.055861614644527435,0.015134246088564396,-0.42169392108917236
1701290506242655700,10.20465576171875,0.038052789866924286,-0.05142081528902054,-0.43064987659454346
1701290506252732000,10.21473193359375,0.01493761595338583,-0.1400982290506363,-0.45167553424835205
1701290506262806500,10.224806640625,-0.00991310179233551,-0.21279151737689972,-0.49096593260765076
1701290506272881700,10.234881591796874,-0.03806617483496666,-0.2535916864871979,-0.5288057327270508
1701290506282957800,10.244957763671875,-0.06234097108244896,-0.27070826292037964,-0.5632631182670593
1701290506293032700,10.25503271484375,-0.08215568214654922,-0.27721303701400757,-0.5771392583847046
1701290506303107800,10.26510791015625,-0.10110396891832352,-0.24969390034675598,-0.5767431259155273
1701290506313183700,10.275183837890625,-0.121699258685112,-0.1683095544576645,-0.5525493621826172
1701290506323258600,10.285258544921875,-0.13976645469665527,-0.04519275575876236,-0.5153740644454956
1701290506333333800,10.295333740234375,-0.15439973771572113,0.09206204116344452,-0.46770936250686646
1701290506343409700,10.30540966796875,-0.166635662317276,0.20192117989063263,-0.4178086817264557
1701290506353484500,10.315484619140625,-0.18856972455978394,0.2590281367301941,-0.3798639476299286
1701290506363559700,10.3255595703125,-0.20555616915225983,0.2610955536365509,-0.35650911927223206
1701290506373635800,10.3356357421875,-0.218560129404068,0.2380821257829666,-0.35139212012290955
1701290506383710700,10.345710693359376,-0.22618401050567627,0.21230612695217133,-0.349590539932251
1701290506393785600,10.35578564453125,-0.22615550458431244,0.21094870567321777,-0.3352310359477997
1701290506403861800,10.36586181640625,-0.21892708539962769,0.23222756385803223,-0.32801273465156555
1701290506413936600,10.3759365234375,-0.21114400029182434,0.24521365761756897,-0.33324557542800903
1701290506424011800,10.38601171875,-0.20894788205623627,0.26199546456336975,-0.35029932856559753
1701290506434087700,10.396087646484375,-0.20627646148204803,0.2987841069698334,-0.3672061264514923
1701290506444162600,10.40616259765625,-0.19485211372375488,0.3365004062652588,-0.35741591453552246
1701290506454237700,10.41623779296875,-0.19524092972278595,0.3544463813304901,-0.32272183895111084
1701290506464313900,10.42631396484375,-0.20292752981185913,0.34810611605644226,-0.27762722969055176
1701290506474388500,10.436388427734375,-0.22017230093479156,0.2979066073894501,-0.2530640959739685
1701290506484464600,10.446464599609374,-0.25441911816596985,0.22237049043178558,-0.25373220443725586
1701290506494539800,10.456539794921875,-0.29114943742752075,0.1435590237379074,-0.26388072967529297
1701290506504614700,10.46661474609375,-0.3145993649959564,0.0757012814283371,-0.2547175884246826
1701290506514690600,10.476690673828125,-0.31278175115585327,0.05834439396858215,-0.23285727202892303
1701290506524765700,10.486765625,-0.29103219509124756,0.08969224989414215,-0.2305397391319275
1701290506534840600,10.496840576171875,-0.2600385844707489,0.1414361298084259,-0.24411174654960632
1701290506544916700,10.506916748046875,-0.23015214502811432,0.19476696848869324,-0.26140856742858887
1701290506554991600,10.51699169921875,-0.205555722117424,0.26515164971351624,-0.2639122009277344
1701290506565066500,10.52706640625,-0.18410810828208923,0.36141231656074524,-0.2518114149570465
1701290506575142700,10.537142578125,-0.16167576611042023,0.47520172595977783,-0.22220134735107422
1701290506585217800,10.5472177734375,-0.152591273188591,0.5849925875663757,-0.16246087849140167
1701290506595293000,10.55729296875,-0.15583953261375427,0.6778831481933594,-0.0806293860077858
1701290506605368600,10.56736865234375,-0.16842840611934662,0.74821937084198,-0.00012135854922235012
1701290506615443700,10.577443603515626,-0.18674562871456146,0.797237753868103,0.07540881633758545
1701290506625518800,10.587518798828125,-0.20160754024982452,0.8329155445098877,0.13817435503005981
1701290506635594500,10.597594482421876,-0.19194214046001434,0.8661057353019714,0.18940718472003937
1701290506645669600,10.607669677734375,-0.16757281124591827,0.8962699770927429,0.2179400771856308
1701290506655744800,10.617744873046876,-0.14706674218177795,0.893264889717102,0.22980710864067078
1701290506665820700,10.627820556640625,-0.11452523618936539,0.7922845482826233,0.22076335549354553
1701290506675895800,10.637895751953126,-0.06128545477986336,0.5986575484275818,0.19916963577270508
1701290506685970700,10.647970703125,-0.005769249051809311,0.4087240993976593,0.17957642674446106
1701290506696046600,10.658046630859374,0.03339812532067299,0.2907505929470062,0.18324412405490875
1701290506706121700,10.668121826171875,0.0653085857629776,0.22570869326591492,0.22768369317054749
1701290506716196900,10.67819677734375,0.12054707854986191,0.15379002690315247,0.3165310025215149
1701290506726272500,10.6882724609375,0.19440501928329468,0.09410624206066132,0.4079760015010834
1701290506736347600,10.69834765625,0.26655882596969604,0.09561119228601456,0.48015883564949036
1701290506746422800,10.7084228515625,0.34093689918518066,0.16228291392326355,0.5296392440795898
1701290506756498700,10.718498779296874,0.4105881452560425,0.2832631468772888,0.594548225402832
1701290506766573600,10.728573486328125,0.4865695834159851,0.44443753361701965,0.7034199833869934
1701290506776648700,10.738648681640624,0.5732195377349854,0.6249181032180786,0.8770514130592346
1701290506786724900,10.748724853515625,0.6640769243240356,0.7626897692680359,1.1021054983139038
1701290506796799700,10.7587998046875,0.7377333045005798,0.8114064335823059,1.3398720026016235
1701290506806875000,10.768875,0.796540379524231,0.7781257033348083,1.5224226713180542
1701290506816950800,10.77895068359375,0.8473303318023682,0.7241096496582031,1.6452412605285645
1701290506827025700,10.789025634765625,0.8901047110557556,0.6937534809112549,1.731175184249878
1701290506837100800,10.799100830078125,0.9232777953147888,0.6764349341392517,1.8213202953338623
1701290506847176700,10.8091767578125,0.9434944987297058,0.6532992720603943,1.9253454208374023
1701290506857251600,10.81925146484375,0.9413368105888367,0.5942658185958862,1.985224723815918
1701290506867326700,10.82932666015625,0.928026556968689,0.42131274938583374,1.9492223262786865
1701290506877403000,10.83940283203125,0.9182697534561157,0.1590755432844162,1.8115869760513306
1701290506887477800,10.849477783203126,0.9158249497413635,-0.09080047905445099,1.6140028238296509
1701290506897552600,10.859552734375,0.9286590218544006,-0.27251967787742615,1.4184186458587646
1701290506907628800,10.86962890625,0.9484671354293823,-0.42921775579452515,1.2413326501846313
1701290506917703700,10.87970361328125,0.9600010514259338,-0.5744622945785522,1.0810627937316895
1701290506927778800,10.88977880859375,0.9482995867729187,-0.685935914516449,0.954617977142334
1701290506937853200,10.899853271484375,0.9016050100326538,-0.7140381336212158,0.8679635524749756
1701290506947928000,10.909927978515626,0.8236470222473145,-0.6451773047447205,0.8209575414657593
1701290506958003000,10.9200029296875,0.7409862279891968,-0.5163668990135193,0.8053831458091736
1701290506968079000,10.9300791015625,0.6681333184242249,-0.3491804003715515,0.8107022643089294
1701290506978154200,10.940154296875,0.6091365814208984,-0.16317644715309143,0.8310432434082031
1701290506988230100,10.950230224609374,0.5760003328323364,-0.013232056982815266,0.8368884325027466
1701290506998305000,10.960304931640625,0.5803513526916504,0.05060364678502083,0.7893297076225281
1701290507008380200,10.970380126953126,0.6024388074874878,0.01547863706946373,0.6793091297149658
1701290507018456300,10.980456298828125,0.630304753780365,-0.10720440000295639,0.5034254789352417
1701290507028531200,10.99053125,0.642798662185669,-0.2891985774040222,0.29577502608299255
1701290507038606000,11.000606201171875,0.6460331082344055,-0.4920656681060791,0.09361661225557327
1701290507048682200,11.01068212890625,0.6604340672492981,-0.6803131103515625,-0.0729367658495903
1701290507058757000,11.020757080078125,0.6852099895477295,-0.8229818344116211,-0.18237724900245667
1701290507068832300,11.030832275390624,0.7124485969543457,-0.9052614569664001,-0.2256450355052948
1701290507078908200,11.040908203125,0.7047392725944519,-0.9277340173721313,-0.2129470705986023
1701290507088983000,11.050983154296874,0.6566133499145508,-0.8822887539863586,-0.17526301741600037
1701290507099058200,11.06105810546875,0.5894380807876587,-0.808820366859436,-0.1411236971616745
1701290507109134000,11.071134033203125,0.5230768322944641,-0.777199387550354,-0.12636184692382812
1701290507119209000,11.081208984375,0.4635402262210846,-0.7762486338615417,-0.13683685660362244
1701290507129284000,11.0912841796875,0.41823092103004456,-0.7814925909042358,-0.17076408863067627
1701290507139360300,11.1013603515625,0.3706687390804291,-0.7789178490638733,-0.19961011409759521
1701290507149435100,11.11143505859375,0.3196808099746704,-0.7576693296432495,-0.21219873428344727
1701290507159510000,11.121510009765625,0.25197792053222656,-0.7158505320549011,-0.21095982193946838
1701290507169586200,11.131586181640625,0.1626100391149521,-0.6535940766334534,-0.20324668288230896
1701290507179661000,11.1416611328125,0.05895156040787697,-0.5887340903282166,-0.1886965036392212
1701290507189736200,11.151736083984375,-0.03035709820687771,-0.5254640579223633,-0.16220374405384064
1701290507199812000,11.16181201171875,-0.09522610902786255,-0.43876755237579346,-0.12964020669460297
1701290507209887000,11.171886962890625,-0.13916641473770142,-0.3465827703475952,-0.09171868115663528
1701290507219962000,11.181962158203126,-0.1863192915916443,-0.2681361436843872,-0.06233149766921997
1701290507230038300,11.192038330078125,-0.2321784794330597,-0.22026638686656952,-0.046252742409706116
1701290507240113000,11.20211279296875,-0.28679031133651733,-0.18460214138031006,-0.04645088315010071
1701290507250188000,11.21218798828125,-0.33483704924583435,-0.15210677683353424,-0.06117105856537819
1701290507260264200,11.22226416015625,-0.3749285638332367,-0.10778512060642242,-0.08010054379701614
1701290507270339000,11.232339111328125,-0.4216538369655609,-0.054435234516859055,-0.11820359528064728
1701290507280414200,11.242414306640624,-0.4716578722000122,-0.001138458028435707,-0.1647426038980484
1701290507290490000,11.252489990234375,-0.5187369585037231,0.042384516447782516,-0.19964119791984558
1701290507300565000,11.26256494140625,-0.5532169342041016,0.07645753771066666,-0.20780432224273682
1701290507310640000,11.27264013671875,-0.5643843412399292,0.10260125249624252,-0.1867256760597229
1701290507320716000,11.282716064453124,-0.5529506206512451,0.1197269856929779,-0.15289393067359924
1701290507330791000,11.292791015625,-0.5235857963562012,0.11303817480802536,-0.12374001741409302
1701290507340866000,11.302865966796874,-0.48794737458229065,0.07988101989030838,-0.11544214189052582
1701290507350942200,11.312942138671875,-0.43720993399620056,0.00530987698584795,-0.1310233175754547
1701290507361017300,11.323017333984374,-0.36446860432624817,-0.11322183161973953,-0.14695993065834045
1701290507371093000,11.333093017578125,-0.26328957080841064,-0.29286569356918335,-0.17117954790592194
1701290507381168000,11.343168212890625,-0.14502684772014618,-0.4884274899959564,-0.21559546887874603
1701290507391243300,11.3532431640625,-0.007690033875405788,-0.626133918762207,-0.2792567312717438
1701290507401319000,11.36331884765625,0.1356319785118103,-0.6776934862136841,-0.3195413053035736
1701290507411394000,11.37339404296875,0.26849114894866943,-0.7353380918502808,-0.29833462834358215
1701290507421469200,11.38346923828125,0.36618921160697937,-0.7971383929252625,-0.20104800164699554
1701290507431545000,11.393545166015626,0.4263451397418976,-0.7832866311073303,-0.10391225665807724
1701290507441620200,11.4036201171875,0.46200698614120483,-0.6047568321228027,-0.06970661878585815
1701290507451695000,11.413695068359376,0.4265087842941284,-0.23108991980552673,-0.08296611905097961
1701290507461771000,11.42377099609375,0.292162150144577,0.14164742827415466,-0.1195712685585022
1701290507471846100,11.43384619140625,0.10010052472352982,0.3046565353870392,-0.158187136054039
1701290507481921300,11.44392138671875,-0.08073662966489792,0.296570360660553,-0.19860193133354187
1701290507491997000,11.453996826171876,-0.20529547333717346,0.23749372363090515,-0.262574166059494
1701290507502072000,11.464072021484375,-0.26718705892562866,0.2592932879924774,-0.30290719866752625
1701290507512147200,11.474147216796876,-0.30704545974731445,0.3801349401473999,-0.2607702910900116
1701290507522223000,11.48422314453125,-0.370816171169281,0.46638378500938416,-0.23728415369987488
1701290507532298000,11.494298095703124,-0.4436097741127014,0.29957759380340576,-0.33605796098709106
1701290507542373000,11.504373046875,-0.5007146596908569,-0.21674755215644836,-0.502827525138855
1701290507552449300,11.51444921875,-0.528796374797821,-0.8840765357017517,-0.5913571715354919
1701290507562524200,11.524524169921875,-0.49537718296051025,-1.4677793979644775,-0.5248266458511353
1701290507572599300,11.534599365234374,-0.4269937574863434,-1.738336443901062,-0.4365219473838806
1701290507582675200,11.54467529296875,-0.37292999029159546,-1.442961573600769,-0.4259102940559387
1701290507592750000,11.55475,-0.3392772078514099,-0.6714742183685303,-0.38390448689460754
1701290507602825200,11.5648251953125,-0.2914164662361145,0.23154670000076294,-0.25516965985298157
1701290507612901000,11.574901123046875,-0.2376910001039505,0.9382439255714417,-0.10761575400829315
1701290507622976000,11.58497607421875,-0.19281886518001556,1.3430992364883423,-0.012111599557101727
1701290507633051100,11.595051025390624,-0.16218623518943787,1.4419487714767456,0.01103969570249319
1701290507643127300,11.605127197265626,-0.1455015242099762,1.255009412765503,-0.03929537907242775
1701290507653202200,11.6152021484375,-0.14851617813110352,0.8218982219696045,-0.2187497913837433
1701290507663277000,11.625277099609375,-0.16273371875286102,0.26228398084640503,-0.5092028975486755
1701290507673353200,11.635353271484375,-0.19214023649692535,-0.28659841418266296,-0.8181548118591309
1701290507683428000,11.645427978515626,-0.24228808283805847,-0.7536646723747253,-1.02054762840271
1701290507693503200,11.655503173828125,-0.31652969121932983,-1.1119641065597534,-1.0860875844955444
1701290507703579100,11.6655791015625,-0.3836384117603302,-1.3205689191818237,-1.0311180353164673
1701290507713654000,11.675654052734375,-0.38297462463378906,-1.2748366594314575,-0.904675304889679
1701290507723729200,11.685729248046876,-0.304863840341568,-0.9643195271492004,-0.7426711916923523
1701290507733805000,11.69580517578125,-0.15038110315799713,-0.4608231782913208,-0.5733277201652527
1701290507743880000,11.7058798828125,0.02397097833454609,-0.023106802254915237,-0.4533078670501709
1701290507753955000,11.715955078125,0.1391683965921402,0.15226304531097412,-0.4455850124359131
1701290507764031200,11.72603125,0.1579388827085495,0.05329571291804314,-0.5184698700904846
1701290507774106000,11.736106201171875,0.1847580373287201,-0.20326252281665802,-0.6137686371803284
1701290507784182000,11.74618212890625,0.20209336280822754,-0.4257323443889618,-0.6756381392478943
1701290507794257200,11.756257080078125,0.15805955231189728,-0.49868136644363403,-0.6697251796722412
1701290507804332000,11.76633203125,0.038533423095941544,-0.418961763381958,-0.6133833527565002
1701290507814407200,11.7764072265625,-0.08672291785478592,-0.21582819521427155,-0.5095529556274414
1701290507824483000,11.786483154296874,-0.11391246318817139,0.05262962728738785,-0.36840885877609253
1701290507834558000,11.796557861328125,-0.08150658756494522,0.3598470687866211,-0.25016769766807556
1701290507844634000,11.806634033203125,-0.09897585958242416,0.6946162581443787,-0.174667090177536
1701290507854709200,11.816709228515625,-0.11311013251543045,0.8519474267959595,-0.12318240106105804
1701290507864784100,11.8267841796875,-0.08779066056013107,0.7742273211479187,-0.12851965427398682
1701290507874860000,11.836860107421876,-0.039216455072164536,0.5822510719299316,-0.18005499243736267
1701290507884935200,11.84693505859375,0.0006044596084393561,0.35111695528030396,-0.2737646996974945
1701290507895010000,11.857010009765625,0.016798773780465126,0.13845735788345337,-0.3643525242805481
1701290507905086000,11.8670859375,0.023151211440563202,0.019374113529920578,-0.4231540560722351
1701290507915161000,11.8771611328125,0.046150192618370056,0.025205451995134354,-0.4522230327129364
1701290507925236200,11.887236328125,0.10413999110460281,0.08845871686935425,-0.4616221487522125
1701290507935312400,11.8973125,0.1293371468782425,0.1809871345758438,-0.4458770453929901
1701290507945387000,11.907386962890625,0.12629207968711853,0.2835140526294708,-0.40782156586647034
1701290507955462100,11.917462158203126,0.10805697739124298,0.3744423985481262,-0.3523864448070526
1701290507965538300,11.927538330078125,0.0650077760219574,0.43491798639297485,-0.288210391998291
1701290507975613200,11.93761328125,0.001872365828603506,0.4144499897956848,-0.2378016859292984
1701290507985688300,11.947688232421875,-0.05999579280614853,0.28579720854759216,-0.2410387545824051
1701290507995764200,11.95776416015625,-0.11089764535427094,0.09919501841068268,-0.2836568057537079
1701290508005839400,11.96783935546875,-0.13691672682762146,-0.015183484181761742,-0.3139537274837494
1701290508015914200,11.977914306640624,-0.13779257237911224,-0.020335843786597252,-0.3058054745197296
1701290508025990100,11.987990234375,-0.1264488399028778,0.04462265223264694,-0.28379788994789124
1701290508036065300,11.998065185546874,-0.11256176233291626,0.13963583111763,-0.2618350684642792
1701290508046140200,12.00814013671875,-0.1098429411649704,0.2434367835521698,-0.2564954161643982
1701290508056216300,12.01821630859375,-0.11639636009931564,0.3475661873817444,-0.2676622271537781
1701290508066291500,12.02829150390625,-0.13219475746154785,0.46087008714675903,-0.28184783458709717
1701290508076366000,12.038365966796874,-0.15001453459262848,0.5533290505409241,-0.2763494849205017
1701290508086442200,12.048442138671875,-0.17183807492256165,0.585229218006134,-0.25473740696907043
1701290508096517400,12.058517333984375,-0.1853184998035431,0.551758348941803,-0.23276479542255402
1701290508106592300,12.06859228515625,-0.18688416481018066,0.45077288150787354,-0.23122148215770721
1701290508116668200,12.078668212890625,-0.1843811273574829,0.3420966863632202,-0.26162418723106384
1701290508126743300,12.088743408203126,-0.18449696898460388,0.26197442412376404,-0.3006429672241211
1701290508136818200,12.098818115234375,-0.1946174055337906,0.20632304251194,-0.31965169310569763
1701290508146894300,12.108894287109376,-0.2116009145975113,0.18951795995235443,-0.3185504674911499
1701290508156969200,12.11896923828125,-0.2341233491897583,0.21201443672180176,-0.31309157609939575
1701290508167045000,12.129045166015626,-0.2547367513179779,0.25884318351745605,-0.30690744519233704
1701290508177120300,12.139120361328125,-0.26260337233543396,0.2921552360057831,-0.29289939999580383
1701290508187195400,12.1491953125,-0.26418954133987427,0.2998429834842682,-0.27877479791641235
1701290508197271300,12.159271240234375,-0.26707279682159424,0.2904948890209198,-0.2688165605068207
1701290508207346200,12.16934619140625,-0.27321431040763855,0.28364068269729614,-0.26708897948265076
1701290508217421300,12.17942138671875,-0.29321444034576416,0.3014068603515625,-0.27834194898605347
1701290508227497200,12.189497314453124,-0.313989520072937,0.3395278751850128,-0.2797936499118805
1701290508237572000,12.199572021484375,-0.32298293709754944,0.3944702744483948,-0.26271605491638184
1701290508247647200,12.209647216796874,-0.3275907337665558,0.47245562076568604,-0.23741549253463745
1701290508257723400,12.219723388671875,-0.3373067378997803,0.5586704015731812,-0.20250757038593292
1701290508267798300,12.22979833984375,-0.3444173038005829,0.6295446157455444,-0.17366252839565277
1701290508277873200,12.239873046875,-0.34878915548324585,0.663503110408783,-0.1386241316795349
1701290508287949300,12.24994921875,-0.33831679821014404,0.6661047339439392,-0.09474296867847443
1701290508298024200,12.260024169921875,-0.33125290274620056,0.6805536150932312,-0.04377470910549164
1701290508308099300,12.270099365234374,-0.3178423047065735,0.7278995513916016,-0.009762945584952831
1701290508318175200,12.28017529296875,-0.30265676975250244,0.7926034927368164,0.013283947482705116
1701290508328250000,12.29025,-0.29344409704208374,0.8560978174209595,0.017348995432257652
1701290508338325200,12.3003251953125,-0.2846907079219818,0.9075004458427429,0.023219794034957886
1701290508348401400,12.3104013671875,-0.2720699906349182,0.9346622824668884,0.04850677400827408
