time,seconds_elapsed,z,y,x
1701290859088166700,0.009166748046875,-0.1645965576171875,0.81463623046875,0.5606689453125
1701290859098241800,0.01924169921875,-0.15899658203125,0.818084716796875,0.556854248046875
1701290859108316700,0.029316650390625,-0.16058349609375,0.82379150390625,0.5550689697265625
1701290859118391800,0.039391845703125,-0.17095947265625,0.828826904296875,0.547637939453125
1701290859128467000,0.049467041015625,-0.1805419921875,0.8271942138671875,0.545318603515625
1701290859138541800,0.059541748046875,-0.175537109375,0.819915771484375,0.55181884765625
1701290859148616700,0.06961669921875,-0.1728515625,0.812957763671875,0.5579833984375
1701290859158691600,0.079691650390625,-0.17279052734375,0.81292724609375,0.5614471435546875
1701290859168766700,0.0897666015625,-0.167938232421875,0.808502197265625,0.561126708984375
1701290859178841900,0.099841796875,-0.1649017333984375,0.8085479736328125,0.549163818359375
1701290859188916700,0.109916748046875,-0.1623687744140625,0.8184661865234375,0.5451202392578125
1701290859198992000,0.119991943359375,-0.1601104736328125,0.8197479248046875,0.5453948974609375
1701290859209066800,0.130066650390625,-0.1661529541015625,0.8165435791015625,0.549346923828125
1701290859219141600,0.1401416015625,-0.1736907958984375,0.8154296875,0.54986572265625
1701290859229217300,0.15021728515625,-0.1774444580078125,0.8165130615234375,0.549560546875
1701290859239291100,0.160291015625,-0.175262451171875,0.8112030029296875,0.54888916015625
1701290859249366300,0.1703662109375,-0.171783447265625,0.807098388671875,0.555084228515625
1701290859259441400,0.18044140625,-0.170928955078125,0.7999114990234375,0.56463623046875
1701290859269516300,0.190516357421875,-0.1699066162109375,0.7968597412109375,0.5697479248046875
1701290859279591400,0.20059130859375,-0.1651763916015625,0.7932891845703125,0.57305908203125
1701290859289666000,0.210666015625,-0.1580352783203125,0.7857513427734375,0.57940673828125
1701290859299741200,0.2207412109375,-0.15557861328125,0.7861175537109375,0.5769805908203125
1701290859309816300,0.23081640625,-0.161224365234375,0.7891845703125,0.570648193359375
1701290859319891200,0.24089111328125,-0.1646575927734375,0.7894134521484375,0.5631561279296875
1701290859329966300,0.25096630859375,-0.16217041015625,0.7784576416015625,0.543487548828125
1701290859340041200,0.261041259765625,-0.1576080322265625,0.7779541015625,0.54541015625
1701290859350116400,0.271116455078125,-0.143951416015625,0.8032073974609375,0.54364013671875
1701290859360191200,0.281191162109375,-0.1320343017578125,0.800445556640625,0.52734375
1701290859370266000,0.29126611328125,-0.1242523193359375,0.790191650390625,0.52301025390625
1701290859380341200,0.30134130859375,-0.1156158447265625,0.7882232666015625,0.5199127197265625
1701290859390416100,0.311416015625,-0.111541748046875,0.7737579345703125,0.508636474609375
1701290859400491300,0.3214912109375,-0.106964111328125,0.7830963134765625,0.486572265625
1701290859410565000,0.331565185546875,-0.1147003173828125,0.78009033203125,0.5033721923828125
1701290859420640300,0.34164013671875,-0.1203155517578125,0.7676239013671875,0.53643798828125
1701290859430715400,0.35171533203125,-0.117279052734375,0.7134246826171875,0.5782318115234375
1701290859440790300,0.361790283203125,-0.103515625,0.4669342041015625,0.718017578125
1701290859450865200,0.371865234375,-0.029632568359375,0.4439849853515625,0.7044525146484375
1701290859460940300,0.381940185546875,-0.0052032470703125,0.64605712890625,0.6146087646484375
1701290859471015200,0.39201513671875,-0.03057861328125,0.7506103515625,0.5680999755859375
1701290859481090300,0.40209033203125,-0.06146240234375,0.8250885009765625,0.5447540283203125
1701290859491165200,0.412165283203125,-0.1211395263671875,0.9000701904296875,0.5419769287109375
1701290859501240300,0.422240234375,-0.199127197265625,0.9286346435546875,0.4984588623046875
1701290859511315500,0.4323154296875,-0.2061309814453125,0.9111785888671875,0.4408416748046875
1701290859521390000,0.44239013671875,-0.1505584716796875,0.87139892578125,0.419464111328125
1701290859531465200,0.45246533203125,-0.0833282470703125,0.841827392578125,0.4371337890625
1701290859541540000,0.4625400390625,-0.05523681640625,0.852569580078125,0.4956512451171875
1701290859551615200,0.472615234375,-0.0447235107421875,0.8825531005859375,0.5558013916015625
1701290859561690400,0.4826904296875,-0.0419158935546875,0.8759918212890625,0.5905609130859375
1701290859571765200,0.49276513671875,-0.0329742431640625,0.841339111328125,0.6001434326171875
1701290859581840400,0.50284033203125,-0.018402099609375,0.8401031494140625,0.6237640380859375
1701290859591914200,0.512914306640625,-0.01873779296875,0.843414306640625,0.6378326416015625
1701290859601989400,0.5229892578125,-0.01007080078125,0.8549652099609375,0.633575439453125
1701290859612064300,0.533064208984375,-0.0166015625,0.8637847900390625,0.62188720703125
1701290859622139100,0.54313916015625,-0.0255584716796875,0.861175537109375,0.6011962890625
1701290859632214300,0.55321435546875,-0.040740966796875,0.8642425537109375,0.5731048583984375
1701290859642289200,0.5632890625,-0.0481719970703125,0.8671875,0.555389404296875
1701290859652364300,0.5733642578125,-0.0298919677734375,0.8888397216796875,0.556427001953125
1701290859662439400,0.583439453125,-0.006683349609375,0.9204559326171875,0.5612335205078125
1701290859672514300,0.593514404296875,-0.006195068359375,0.9539031982421875,0.5397186279296875
1701290859682589200,0.603589111328125,-0.0124359130859375,0.9633941650390625,0.508392333984375
1701290859692664000,0.6136640625,-0.020263671875,0.9649200439453125,0.48046875
1701290859702739200,0.6237392578125,-0.0230712890625,0.9656982421875,0.4558563232421875
1701290859712814300,0.633814453125,-0.01129150390625,0.9616546630859375,0.437774658203125
1701290859722889200,0.64388916015625,0.0045928955078125,0.959075927734375,0.425201416015625
1701290859732964400,0.65396435546875,0.0176849365234375,0.9530792236328125,0.4246063232421875
1701290859743039500,0.66403955078125,0.02569580078125,0.9131011962890625,0.424102783203125
1701290859753114000,0.674114013671875,0.02642822265625,0.8594818115234375,0.4281005859375
1701290859763189200,0.684189208984375,0.014801025390625,0.8460540771484375,0.4389801025390625
1701290859773263000,0.69426318359375,0.010040283203125,0.8661346435546875,0.44488525390625
1701290859783338200,0.704338134765625,0.0087127685546875,0.8842926025390625,0.434173583984375
1701290859793413000,0.7144130859375,0.0173492431640625,0.8952178955078125,0.4111480712890625
1701290859803488300,0.72448828125,0.0242156982421875,0.896392822265625,0.390655517578125
1701290859813563400,0.7345634765625,0.0267181396484375,0.8868408203125,0.368896484375
1701290859823638300,0.74463818359375,0.0280303955078125,0.9049530029296875,0.3578033447265625
1701290859833713400,0.75471337890625,0.0304718017578125,0.940185546875,0.342620849609375
1701290859843788000,0.7647880859375,0.0288543701171875,0.95465087890625,0.32855224609375
1701290859853863200,0.77486328125,0.036163330078125,0.959442138671875,0.305999755859375
1701290859863938300,0.784938232421875,0.045928955078125,1.013916015625,0.288665771484375
1701290859874013200,0.79501318359375,0.05615234375,1.029266357421875,0.2767333984375
1701290859884088300,0.80508837890625,0.05438232421875,1.06829833984375,0.2805023193359375
1701290859894163500,0.81516357421875,0.04522705078125,1.0879058837890625,0.2723388671875
1701290859904238300,0.82523828125,0.0279998779296875,1.087982177734375,0.24822998046875
1701290859914313200,0.835313232421875,0.0316619873046875,1.0703887939453125,0.2156829833984375
1701290859924388000,0.84538818359375,0.02484130859375,1.0465545654296875,0.17645263671875
1701290859934463200,0.855463134765625,0.03009033203125,1.06011962890625,0.16229248046875
1701290859944538400,0.865538330078125,0.025054931640625,1.051177978515625,0.14532470703125
1701290859954612200,0.8756123046875,-0.0001373291015625,1.08770751953125,0.1338653564453125
1701290859964687400,0.885687255859375,0.0057525634765625,1.0743865966796875,0.1132049560546875
1701290859974762200,0.89576220703125,0.0130767822265625,1.024566650390625,0.1013336181640625
1701290859984837400,0.90583740234375,0.0277099609375,0.9741973876953125,0.1060333251953125
1701290859994912300,0.915912353515625,0.0303802490234375,0.973175048828125,0.0894927978515625
1701290860004987100,0.925987060546875,0.0296173095703125,1.015380859375,0.056671142578125
1701290860015062300,0.936062255859375,0.0265045166015625,1.0927734375,0.02069091796875
1701290860025137200,0.94613720703125,0.006622314453125,1.1332550048828125,-0.0165863037109375
1701290860035212300,0.95621240234375,-0.006927490234375,1.0347747802734375,-0.0700225830078125
1701290860045287400,0.966287353515625,0.001983642578125,0.8621673583984375,-0.1075286865234375
1701290860055362300,0.9763623046875,0.0072174072265625,0.750701904296875,-0.13470458984375
1701290860065437400,0.9864375,0.0004730224609375,0.7479400634765625,-0.109375
1701290860075512000,0.996511962890625,0.0028228759765625,0.84405517578125,-0.051422119140625
1701290860085587200,1.006587158203125,0.0215301513671875,0.9445953369140625,0.0013427734375
1701290860095662300,1.016662353515625,0.04144287109375,1.0146484375,0.0257415771484375
1701290860105737200,1.0267373046875,0.0673980712890625,1.042388916015625,0.0409088134765625
1701290860115812400,1.036812255859375,0.0943145751953125,1.0311737060546875,0.0623016357421875
1701290860125886200,1.04688623046875,0.1138153076171875,0.9900665283203125,0.1063232421875
1701290860135961300,1.05696142578125,0.1030426025390625,0.9597930908203125,0.187652587890625
1701290860146036200,1.0670361328125,0.066436767578125,0.9428253173828125,0.303802490234375
1701290860156111400,1.077111328125,0.0294342041015625,0.93798828125,0.439910888671875
1701290860166186200,1.087186279296875,0.011505126953125,0.926910400390625,0.52703857421875
1701290860176261000,1.09726123046875,0.0067291259765625,0.90582275390625,0.5551605224609375
1701290860186336300,1.107336181640625,0.008819580078125,0.8989105224609375,0.5414276123046875
1701290860196411400,1.117411376953125,0.0233306884765625,0.9090423583984375,0.4672088623046875
1701290860206486300,1.127486328125,0.034149169921875,0.949371337890625,0.33526611328125
1701290860216561400,1.1375615234375,0.0223388671875,0.9937896728515625,0.236602783203125
1701290860226636300,1.14763623046875,-0.0028076171875,1.0060882568359375,0.1291961669921875
1701290860236711200,1.157711181640625,-0.006866455078125,1.010284423828125,0.0588226318359375
1701290860246786300,1.167786376953125,0.0119781494140625,1.031341552734375,0.0491180419921875
1701290860256861200,1.177861083984375,0.02294921875,1.045135498046875,0.067626953125
1701290860266936300,1.187936279296875,0.0190887451171875,1.0320892333984375,0.113983154296875
1701290860277010200,1.19801025390625,0.0084686279296875,0.999114990234375,0.1680145263671875
1701290860287085300,1.208085205078125,0.0106658935546875,0.9760894775390625,0.192901611328125
1701290860297160200,1.21816015625,0.03900146484375,0.9676055908203125,0.1986846923828125
1701290860307235300,1.2282353515625,0.077362060546875,0.9673309326171875,0.1971435546875
1701290860317310200,1.238310302734375,0.0893402099609375,0.9757537841796875,0.18505859375
1701290860327385000,1.248385009765625,0.0659027099609375,0.983154296875,0.166595458984375
1701290860337460200,1.258460205078125,0.0395965576171875,0.994171142578125,0.150390625
1701290860347535400,1.268535400390625,0.0329742431640625,0.99493408203125,0.151885986328125
1701290860357610200,1.2786103515625,0.0439605712890625,0.9910125732421875,0.168060302734375
1701290860367685400,1.288685302734375,0.0561065673828125,0.990509033203125,0.18280029296875
1701290860377760300,1.29876025390625,0.0608673095703125,0.98590087890625,0.190643310546875
1701290860387835400,1.30883544921875,0.055633544921875,0.9842376708984375,0.190948486328125
1701290860397910300,1.31891015625,0.04632568359375,0.984649658203125,0.1897125244140625
1701290860407985200,1.328985107421875,0.0473480224609375,0.9781036376953125,0.1930999755859375
1701290860418060300,1.339060302734375,0.06048583984375,0.9776611328125,0.2049102783203125
1701290860428135200,1.34913525390625,0.07037353515625,0.9812774658203125,0.21270751953125
1701290860438209300,1.359209228515625,0.073638916015625,0.98468017578125,0.2200469970703125
1701290860448284200,1.3692841796875,0.069732666015625,0.988128662109375,0.2155303955078125
1701290860458359300,1.379359375,0.0627899169921875,0.98260498046875,0.2009124755859375
1701290860468434400,1.389434326171875,0.0598907470703125,0.97210693359375,0.1923675537109375
1701290860478509300,1.39950927734375,0.0631103515625,0.9686431884765625,0.1995697021484375
1701290860488584200,1.409584228515625,0.06842041015625,0.9704132080078125,0.207855224609375
1701290860498659300,1.419659423828125,0.0656585693359375,0.978363037109375,0.2101593017578125
1701290860508734200,1.429734130859375,0.059661865234375,0.981048583984375,0.208160400390625
1701290860518809300,1.439809326171875,0.052520751953125,0.976593017578125,0.2062530517578125
1701290860528884200,1.44988427734375,0.0518646240234375,0.971343994140625,0.211822509765625
1701290860538959400,1.45995947265625,0.062408447265625,0.9687042236328125,0.224212646484375
1701290860549034200,1.4700341796875,0.0767974853515625,0.97088623046875,0.2317657470703125
1701290860559109000,1.480109130859375,0.08074951171875,0.9697418212890625,0.2294769287109375
1701290860569184300,1.490184326171875,0.0733795166015625,0.976531982421875,0.2320098876953125
1701290860579259100,1.500259033203125,0.0714263916015625,0.9801177978515625,0.2357177734375
1701290860589333200,1.510333251953125,0.06927490234375,0.972198486328125,0.2385711669921875
1701290860599408000,1.520408203125,0.0731658935546875,0.96014404296875,0.244873046875
1701290860609483300,1.530483154296875,0.0831756591796875,0.953521728515625,0.24395751953125
1701290860619558400,1.540558349609375,0.0932464599609375,0.955963134765625,0.225006103515625
1701290860629633300,1.55063330078125,0.095184326171875,0.96563720703125,0.1959228515625
1701290860639708200,1.560708251953125,0.0867462158203125,0.97918701171875,0.1713409423828125
1701290860649783300,1.570783203125,0.078643798828125,0.9786376953125,0.162933349609375
1701290860659858200,1.580858154296875,0.0771026611328125,0.971160888671875,0.16937255859375
1701290860669933300,1.590933349609375,0.0810394287109375,0.9731292724609375,0.182586669921875
1701290860680008200,1.60100830078125,0.083648681640625,0.9800872802734375,0.18829345703125
1701290860690083300,1.611083251953125,0.0748291015625,0.9825592041015625,0.184478759765625
1701290860700158500,1.621158447265625,0.0607452392578125,0.9808349609375,0.178955078125
1701290860710233000,1.631233154296875,0.053985595703125,0.9742584228515625,0.1730804443359375
1701290860720308200,1.64130810546875,0.0534820556640625,0.97125244140625,0.1810150146484375
1701290860730383000,1.651383056640625,0.0518341064453125,0.973175048828125,0.199951171875
1701290860740458200,1.661458251953125,0.0506439208984375,0.97479248046875,0.2194976806640625
1701290860750532000,1.671531982421875,0.0493927001953125,0.972137451171875,0.223358154296875
1701290860760607200,1.681607177734375,0.03948974609375,0.9702606201171875,0.2152252197265625
1701290860770682400,1.691682373046875,0.028961181640625,0.967376708984375,0.20269775390625
1701290860780757200,1.70175732421875,0.019683837890625,0.9634246826171875,0.1941375732421875
1701290860790832400,1.711832275390625,0.0091400146484375,0.9698944091796875,0.193878173828125
1701290860800907300,1.7219072265625,0.00469970703125,0.975830078125,0.1978607177734375
1701290860810982100,1.731982177734375,0.006317138671875,0.9806060791015625,0.2085418701171875
1701290860821057300,1.742057373046875,0.0030975341796875,0.980682373046875,0.21990966796875
1701290860831132200,1.752132080078125,0.0021514892578125,0.9728851318359375,0.234588623046875
1701290860841207300,1.762207275390625,0.0003662109375,0.9629364013671875,0.2398223876953125
1701290860851282400,1.772282470703125,-0.008819580078125,0.9613494873046875,0.2408599853515625
1701290860861357300,1.782357421875,-0.0146026611328125,0.9700927734375,0.24932861328125
1701290860871432200,1.79243212890625,-0.0061492919921875,0.975433349609375,0.256591796875
1701290860881507000,1.802507080078125,0.010162353515625,0.9710845947265625,0.2536163330078125
1701290860891581200,1.812581298828125,0.0179901123046875,0.9579010009765625,0.2493438720703125
1701290860901656000,1.822656005859375,0.0128631591796875,0.94891357421875,0.2381134033203125
1701290860911731200,1.832731201171875,0.0061187744140625,0.955657958984375,0.230316162109375
1701290860921806300,1.842806396484375,-0.0009613037109375,0.977203369140625,0.2237548828125
1701290860931881200,1.852881103515625,-0.0152130126953125,1.001129150390625,0.2061309814453125
1701290860941956400,1.862956298828125,-0.0192413330078125,0.98687744140625,0.1683502197265625
1701290860952031500,1.873031494140625,0.0016326904296875,0.96942138671875,0.13604736328125
1701290860962106000,1.883106201171875,0.01397705078125,0.9726715087890625,0.12615966796875
1701290860972181200,1.89318115234375,0.015106201171875,0.9804229736328125,0.1532745361328125
1701290860982256000,1.903256103515625,0.0167236328125,0.975555419921875,0.1858978271484375
1701290860992331300,1.913331298828125,0.0170135498046875,0.963897705078125,0.2044525146484375
1701290861002406400,1.923406494140625,0.01422119140625,0.95556640625,0.2187652587890625
1701290861012481300,1.933481201171875,0.010833740234375,0.9482421875,0.232391357421875
1701290861022556400,1.943556396484375,0.010955810546875,0.952484130859375,0.2427825927734375
1701290861032631000,1.953631103515625,0.009429931640625,0.958038330078125,0.2477569580078125
1701290861042705400,1.963705322265625,0.0082244873046875,0.97222900390625,0.25189208984375
1701290861052780000,1.973780029296875,0.0137786865234375,0.9797210693359375,0.2485504150390625
1701290861062855200,1.983855224609375,0.02362060546875,0.9649810791015625,0.2412261962890625
1701290861072930300,1.993930419921875,0.029571533203125,0.950408935546875,0.2368011474609375
1701290861083005200,2.004005126953125,0.0311431884765625,0.9562835693359375,0.2440185546875
1701290861093080300,2.014080322265625,0.03631591796875,0.9658660888671875,0.254913330078125
1701290861103155500,2.024155517578125,0.050079345703125,0.964447021484375,0.2603912353515625
1701290861113230300,2.034230224609375,0.0625152587890625,0.94671630859375,0.2704925537109375
1701290861123305200,2.04430517578125,0.084930419921875,0.9383544921875,0.2809906005859375
1701290861133380000,2.054380126953125,0.1110076904296875,0.948944091796875,0.287384033203125
1701290861143455200,2.064455322265625,0.097381591796875,0.95611572265625,0.2829742431640625
1701290861153530400,2.0745302734375,0.049102783203125,0.94793701171875,0.2730560302734375
1701290861163605200,2.084605224609375,0.0163116455078125,0.9325408935546875,0.253570556640625
1701290861173680400,2.094680419921875,0.037872314453125,0.9215545654296875,0.2196502685546875
1701290861183755300,2.10475537109375,0.0930023193359375,0.9322357177734375,0.2128448486328125
1701290861193829400,2.114829345703125,0.125885009765625,0.956817626953125,0.2328948974609375
1701290861203904300,2.124904296875,0.1279296875,0.9639129638671875,0.263092041015625
1701290861213979100,2.134979248046875,0.1228790283203125,0.96038818359375,0.3014678955078125
1701290861224054300,2.14505419921875,0.106842041015625,0.95928955078125,0.334716796875
1701290861234129200,2.155129150390625,0.069793701171875,0.959716796875,0.3707427978515625
1701290861244204000,2.1652041015625,0.0254364013671875,0.9497528076171875,0.3993988037109375
1701290861254279200,2.175279052734375,-0.0055389404296875,0.9312591552734375,0.41448974609375
1701290861264354300,2.185354248046875,-0.0234375,0.9135894775390625,0.407928466796875
1701290861274429200,2.19542919921875,-0.0271453857421875,0.9188079833984375,0.3856658935546875
1701290861284504000,2.205504150390625,-0.0199737548828125,0.948944091796875,0.3551177978515625
1701290861294579000,2.215578857421875,-0.0184326171875,0.9597320556640625,0.324615478515625
1701290861304654000,2.225654052734375,-0.0255584716796875,0.9542236328125,0.3114166259765625
1701290861314729200,2.235729248046875,-0.026153564453125,0.9501495361328125,0.3224639892578125
1701290861324804000,2.24580419921875,0.00323486328125,0.9413604736328125,0.3387298583984375
1701290861334878200,2.255878173828125,0.03216552734375,0.940673828125,0.3342742919921875
1701290861344953000,2.265953125,0.0355377197265625,0.940277099609375,0.3246002197265625
1701290861355028200,2.2760283203125,0.02923583984375,0.919921875,0.3322601318359375
1701290861365103400,2.286103271484375,0.005157470703125,0.9041595458984375,0.3506622314453125
1701290861375178000,2.296177978515625,-0.0279541015625,0.9000701904296875,0.369384765625
1701290861385253000,2.306253173828125,-0.0715484619140625,0.8882904052734375,0.3871917724609375
1701290861395328000,2.316327880859375,-0.108734130859375,0.859832763671875,0.393035888671875
1701290861405403100,2.326403076171875,-0.110076904296875,0.8285369873046875,0.3878936767578125
1701290861415478300,2.336478271484375,-0.0901947021484375,0.820709228515625,0.3877410888671875
1701290861425553200,2.34655322265625,-0.065216064453125,0.830474853515625,0.3988800048828125
1701290861435628300,2.356628173828125,-0.0582275390625,0.839141845703125,0.4084625244140625
1701290861445703000,2.366702880859375,-0.0746307373046875,0.829132080078125,0.3923492431640625
1701290861455778000,2.376778076171875,-0.0891265869140625,0.804840087890625,0.35845947265625
1701290861465853200,2.386853271484375,-0.115264892578125,0.7851715087890625,0.3381195068359375
1701290861475928000,2.396927978515625,-0.138214111328125,0.777374267578125,0.3177642822265625
1701290861486002200,2.407002197265625,-0.110595703125,0.7782745361328125,0.2880859375
1701290861496077000,2.4170771484375,-0.034423828125,0.7809600830078125,0.2468414306640625
1701290861506152200,2.427152099609375,-0.0205535888671875,0.7841796875,0.2127227783203125
1701290861516227300,2.437227294921875,-0.0838623046875,0.7933807373046875,0.2262420654296875
1701290861526302200,2.44730224609375,-0.130828857421875,0.802215576171875,0.2483367919921875
1701290861536377000,2.457377197265625,-0.0834197998046875,0.8155517578125,0.24371337890625
1701290861546452000,2.467451904296875,-0.01007080078125,0.82440185546875,0.2148284912109375
1701290861556527000,2.477527099609375,-0.0200958251953125,0.82733154296875,0.200714111328125
1701290861566602200,2.487602294921875,-0.068572998046875,0.813690185546875,0.1963348388671875
1701290861576677000,2.497677001953125,-0.0509033203125,0.789276123046875,0.1829833984375
1701290861586752300,2.507752197265625,-0.0062408447265625,0.774200439453125,0.17913818359375
1701290861596827100,2.5178271484375,-0.02374267578125,0.7799530029296875,0.200775146484375
1701290861606902000,2.527902099609375,-0.0753631591796875,0.817108154296875,0.2491607666015625
1701290861616977200,2.53797705078125,-0.039337158203125,0.8881378173828125,0.29052734375
1701290861627051000,2.548051025390625,0.1312713623046875,0.961578369140625,0.2875518798828125
1701290861637126100,2.558126220703125,0.1884765625,0.977203369140625,0.2690887451171875
1701290861647201000,2.568200927734375,0.1191558837890625,0.943450927734375,0.271759033203125
1701290861657276200,2.578276123046875,-0.038970947265625,0.9065399169921875,0.340301513671875
1701290861667351300,2.588351318359375,-0.2146759033203125,0.886383056640625,0.4681549072265625
1701290861677426200,2.59842626953125,-0.318145751953125,0.8798065185546875,0.585968017578125
1701290861687501300,2.608501220703125,-0.2135467529296875,0.889068603515625,0.627227783203125
1701290861697576000,2.618575927734375,-0.00360107421875,0.9096527099609375,0.5970001220703125
1701290861707651000,2.628651123046875,-0.00970458984375,0.9136962890625,0.580810546875
1701290861717726200,2.638726318359375,-0.109649658203125,0.88592529296875,0.562744140625
1701290861727801000,2.648801025390625,-0.134979248046875,0.8704071044921875,0.5613250732421875
1701290861737876200,2.658876220703125,-0.1635589599609375,0.8781280517578125,0.5821075439453125
1701290861747951000,2.668951171875,-0.238189697265625,0.8755035400390625,0.563262939453125
1701290861758026200,2.679026123046875,-0.3369293212890625,0.9022369384765625,0.52294921875
1701290861768100000,2.68910009765625,-0.26708984375,1.01666259765625,0.4810028076171875
1701290861778175200,2.69917529296875,-0.181854248046875,1.136383056640625,0.417877197265625
1701290861788250000,2.70925,-0.2600860595703125,1.214813232421875,0.3675537109375
1701290861798325000,2.719324951171875,-0.31298828125,1.21087646484375,0.3779144287109375
1701290861808400100,2.729400146484375,-0.3292388916015625,1.1281280517578125,0.4291839599609375
1701290861818475300,2.739475341796875,-0.2944488525390625,1.0132904052734375,0.48138427734375
1701290861828550100,2.749550048828125,-0.2341766357421875,0.948028564453125,0.526092529296875
1701290861838625300,2.759625244140625,-0.2382049560546875,1.00897216796875,0.5558929443359375
1701290861848700200,2.7697001953125,-0.24420166015625,1.153900146484375,0.5732574462890625
1701290861858775000,2.779775146484375,-0.1748809814453125,1.3495025634765625,0.5774993896484375
1701290861868850200,2.78985009765625,-0.0963592529296875,1.5513458251953125,0.5791168212890625
1701290861878925000,2.799925048828125,-0.1212921142578125,1.684844970703125,0.56005859375
1701290861889000200,2.810000244140625,-0.2079010009765625,1.590118408203125,0.4721832275390625
1701290861899074000,2.820073974609375,-0.215423583984375,1.25408935546875,0.381622314453125
1701290861909149200,2.830149169921875,-0.183685302734375,0.960418701171875,0.3896942138671875
1701290861919224000,2.84022412109375,-0.1499786376953125,0.7984466552734375,0.41015625
1701290861929299200,2.85029931640625,-0.132537841796875,0.7831268310546875,0.394866943359375
1701290861939374300,2.860374267578125,-0.1432647705078125,0.8790740966796875,0.3717498779296875
1701290861949449000,2.870448974609375,-0.167694091796875,0.9993438720703125,0.3842010498046875
1701290861959524000,2.880524169921875,-0.2052154541015625,1.0894012451171875,0.4048614501953125
1701290861969599200,2.89059912109375,-0.2542572021484375,1.11651611328125,0.41461181640625
1701290861979674000,2.900674072265625,-0.284942626953125,1.0569915771484375,0.40887451171875
1701290861989749200,2.910749267578125,-0.2764434814453125,0.945159912109375,0.375640869140625
1701290861999824100,2.92082421875,-0.2423248291015625,0.8460235595703125,0.33343505859375
1701290862009899300,2.930899169921875,-0.209686279296875,0.78399658203125,0.3019561767578125
1701290862019974100,2.94097412109375,-0.1874237060546875,0.7398834228515625,0.28558349609375
1701290862030049000,2.951049072265625,-0.17803955078125,0.706390380859375,0.2682342529296875
1701290862040123100,2.961123046875,-0.1716156005859375,0.67413330078125,0.2419586181640625
1701290862050198000,2.971197998046875,-0.160430908203125,0.6488494873046875,0.208648681640625
1701290862060273200,2.981273193359375,-0.137603759765625,0.6197509765625,0.180267333984375
1701290862070348000,2.99134814453125,-0.0977630615234375,0.593231201171875,0.148956298828125
1701290862080423200,3.001423095703125,-0.05950927734375,0.5732421875,0.119903564453125
1701290862090498300,3.011498291015625,-0.049041748046875,0.563751220703125,0.098663330078125
1701290862100573200,3.0215732421875,-0.0677642822265625,0.569610595703125,0.094390869140625
1701290862110648000,3.03164794921875,-0.092620849609375,0.5925445556640625,0.0917205810546875
1701290862120723200,3.04172314453125,-0.109527587890625,0.630523681640625,0.083465576171875
1701290862130798000,3.051798095703125,-0.1245574951171875,0.684783935546875,0.0796966552734375
1701290862140873200,3.061873291015625,-0.126373291015625,0.7186737060546875,0.0682525634765625
1701290862150948000,3.071947998046875,-0.139556884765625,0.7186279296875,0.0400238037109375
1701290862161023200,3.082023193359375,-0.162689208984375,0.696197509765625,0.0159454345703125
1701290862171097000,3.09209716796875,-0.196502685546875,0.67095947265625,0.00994873046875
1701290862181172200,3.102172119140625,-0.2246246337890625,0.6386566162109375,0.023040771484375
1701290862191247000,3.1122470703125,-0.2391510009765625,0.6092376708984375,0.0627899169921875
1701290862201322000,3.122322021484375,-0.2625579833984375,0.5949859619140625,0.146453857421875
1701290862211397000,3.132397216796875,-0.2709503173828125,0.6167144775390625,0.29779052734375
1701290862221472000,3.142471923828125,-0.298492431640625,0.663787841796875,0.477935791015625
1701290862231546600,3.152546630859375,-0.3295745849609375,0.7105560302734375,0.6383514404296875
1701290862241621800,3.162621826171875,-0.3428192138671875,0.7511444091796875,0.80029296875
1701290862251697000,3.17269677734375,-0.371307373046875,0.732452392578125,0.891754150390625
1701290862261771800,3.182771728515625,-0.3766632080078125,0.6572418212890625,0.8686676025390625
1701290862271846700,3.1928466796875,-0.307220458984375,0.560333251953125,0.7792510986328125
1701290862281921800,3.202921875,-0.1861724853515625,0.49542236328125,0.6639251708984375
1701290862291996700,3.21299658203125,-0.0709686279296875,0.5147705078125,0.5691986083984375
1701290862302070800,3.22307080078125,-0.0183868408203125,0.600006103515625,0.4810943603515625
1701290862312145700,3.233145751953125,-0.05169677734375,0.6933746337890625,0.36041259765625
1701290862322220800,3.243220703125,-0.11358642578125,0.778289794921875,0.253875732421875
1701290862332295700,3.253295654296875,-0.19744873046875,0.8508453369140625,0.174163818359375
1701290862342370800,3.263370849609375,-0.2755584716796875,0.9172515869140625,0.144287109375
1701290862352446000,3.273446044921875,-0.2653656005859375,0.97271728515625,0.188323974609375
1701290862362520600,3.2835205078125,-0.2203826904296875,1.0126190185546875,0.2693939208984375
1701290862372595700,3.293595703125,-0.2115478515625,1.026519775390625,0.3649139404296875
1701290862382670600,3.303670654296875,-0.2573699951171875,0.9879302978515625,0.4232635498046875
1701290862392745700,3.313745849609375,-0.353729248046875,0.9182891845703125,0.4285888671875
1701290862402820900,3.32382080078125,-0.4636688232421875,0.9421234130859375,0.4126434326171875
1701290862412895700,3.333895751953125,-0.5151519775390625,1.128082275390625,0.4041748046875
1701290862422971000,3.343970947265625,-0.52752685546875,1.345947265625,0.4022674560546875
1701290862433045800,3.354045654296875,-0.686676025390625,1.553436279296875,0.3759002685546875
1701290862443119900,3.364119873046875,-0.5897216796875,1.6411590576171875,0.3311309814453125
1701290862453194800,3.37419482421875,0.0677337646484375,1.486785888671875,0.2822113037109375
1701290862463269600,3.38426953125,0.5181884765625,1.3913726806640625,0.2781982421875
1701290862473344800,3.3943447265625,0.44317626953125,1.730194091796875,0.4625396728515625
1701290862483419600,3.404419677734375,-1.0341644287109375,2.63092041015625,0.8831787109375
1701290862493494800,3.414494873046875,-2.084808349609375,2.872406005859375,1.4706268310546875
1701290862503570000,3.42456982421875,0.0669708251953125,1.5855865478515625,0.702392578125
1701290862513644800,3.434644775390625,0.648773193359375,0.8037872314453125,0.236236572265625
1701290862523719700,3.4447197265625,0.3055572509765625,0.3617706298828125,0.2359161376953125
1701290862533794600,3.454794677734375,0.2920989990234375,0.0953369140625,0.253936767578125
1701290862543869700,3.46486962890625,0.5746307373046875,0.069122314453125,0.3553466796875
1701290862553944800,3.47494482421875,0.7332305908203125,0.1844329833984375,0.474853515625
1701290862564019700,3.485019775390625,0.7797088623046875,0.56097412109375,0.51837158203125
1701290862574093800,3.49509375,0.7788848876953125,1.064788818359375,0.568115234375
1701290862584168700,3.505168701171875,0.5961151123046875,1.4766387939453125,0.6840057373046875
1701290862594243800,3.515243896484375,0.1158905029296875,1.7058258056640625,0.785491943359375
1701290862604319000,3.525319091796875,-0.4920654296875,1.6243438720703125,0.786712646484375
1701290862614393600,3.5353935546875,-0.700439453125,1.2660980224609375,0.456695556640625
1701290862624468700,3.54546875,-0.4209136962890625,0.9938507080078125,0.169036865234375
1701290862634543600,3.555543701171875,-0.129364013671875,0.830291748046875,0.113616943359375
1701290862644618800,3.56561865234375,-0.018341064453125,0.7606048583984375,0.167694091796875
1701290862654694000,3.57569384765625,-0.0078582763671875,0.7806549072265625,0.2396697998046875
1701290862664768800,3.585768798828125,0.00390625,0.8188934326171875,0.3450927734375
1701290862674844000,3.595843994140625,-0.04095458984375,0.84356689453125,0.480377197265625
1701290862684918500,3.60591845703125,-0.1265411376953125,0.8462066650390625,0.5478057861328125
1701290862694993700,3.61599365234375,-0.183074951171875,0.831512451171875,0.5403594970703125
1701290862705068800,3.62606884765625,-0.184295654296875,0.8090667724609375,0.48876953125
1701290862715142700,3.636142578125,-0.1337432861328125,0.7996978759765625,0.4347686767578125
1701290862725217800,3.6462177734375,-0.056365966796875,0.8017425537109375,0.417999267578125
1701290862735292700,3.656292724609375,-0.0193634033203125,0.8034820556640625,0.4514617919921875
1701290862745367800,3.666367919921875,-0.02935791015625,0.7689666748046875,0.4754486083984375
1701290862755443000,3.67644287109375,-0.07073974609375,0.702911376953125,0.45355224609375
1701290862765517800,3.686517822265625,-0.1189422607421875,0.6586456298828125,0.433013916015625
1701290862775592700,3.6965927734375,-0.149261474609375,0.654144287109375,0.4161224365234375
1701290862785667600,3.70666748046875,-0.19140625,0.6962738037109375,0.412872314453125
1701290862795742700,3.71674267578125,-0.214324951171875,0.7694854736328125,0.4358978271484375
1701290862805817900,3.72681787109375,-0.1927490234375,0.807952880859375,0.4546966552734375
1701290862815892700,3.736892822265625,-0.1530609130859375,0.7821197509765625,0.4383392333984375
1701290862825967900,3.7469677734375,-0.125030517578125,0.7227325439453125,0.39044189453125
1701290862836041700,3.757041748046875,-0.1334381103515625,0.7002105712890625,0.3587493896484375
1701290862846116900,3.767116943359375,-0.1461334228515625,0.7454071044921875,0.3834686279296875
1701290862856192000,3.77719189453125,-0.10333251953125,0.79998779296875,0.43939208984375
1701290862866266600,3.7872666015625,-0.043487548828125,0.79559326171875,0.452056884765625
1701290862876341800,3.797341796875,-0.01190185546875,0.7357025146484375,0.41168212890625
1701290862886416600,3.807416748046875,-0.0998687744140625,0.63299560546875,0.36224365234375
1701290862896491800,3.81749169921875,-0.298858642578125,0.547027587890625,0.3405914306640625
1701290862906567000,3.82756689453125,-0.2255859375,0.6097412109375,0.3063507080078125
1701290862916641800,3.837641845703125,0.0583648681640625,0.8061065673828125,0.208740234375
1701290862926717000,3.847717041015625,0.194427490234375,0.94598388671875,0.10430908203125
1701290862936791600,3.85779150390625,0.2089080810546875,0.9727325439453125,0.042236328125
1701290862946866700,3.86786669921875,0.07440185546875,0.895172119140625,0.0450592041015625
1701290862956941800,3.87794189453125,-0.1678466796875,0.78851318359375,0.2001190185546875
1701290862967015700,3.888015625,-0.3439788818359375,0.7825469970703125,0.4127960205078125
1701290862977090800,3.8980908203125,-0.1993255615234375,0.8832855224609375,0.530548095703125
1701290862987165700,3.908165771484375,0.0984649658203125,0.9711151123046875,0.534423828125
1701290862997240800,3.91824072265625,0.08746337890625,0.9720916748046875,0.5532073974609375
1701290863007316000,3.92831591796875,-0.3063201904296875,0.8721923828125,0.656585693359375
1701290863017390800,3.938390869140625,-0.5935516357421875,0.749725341796875,0.77764892578125
1701290863027465700,3.9484658203125,-0.386199951171875,0.692474365234375,0.7929229736328125
1701290863037540600,3.95854052734375,-0.3323974609375,0.7526397705078125,0.749481201171875
1701290863047615700,3.96861572265625,-0.4085235595703125,0.9927825927734375,0.6510467529296875
1701290863057691000,3.97869091796875,-0.3060302734375,1.2079925537109375,0.515167236328125
1701290863067765800,3.988765869140625,-0.1484527587890625,1.244873046875,0.408233642578125
1701290863077841000,3.9988408203125,-0.098175048828125,1.1471405029296875,0.3814544677734375
1701290863087914800,4.008914794921875,-0.0746307373046875,1.014251708984375,0.4045562744140625
1701290863097990000,4.018989990234375,0.010711669921875,0.9506378173828125,0.5222015380859375
1701290863108064800,4.029064697265625,0.0352325439453125,0.9995574951171875,0.64520263671875
1701290863118139600,4.0391396484375,-0.0479736328125,1.2085418701171875,0.7774200439453125
1701290863128214800,4.04921484375,-0.06903076171875,1.535980224609375,0.8972625732421875
1701290863138289700,4.05928955078125,-0.0488739013671875,1.82293701171875,0.94085693359375
1701290863148364800,4.06936474609375,-0.14599609375,1.9385528564453125,0.9174957275390625
1701290863158440000,4.07943994140625,-0.2354888916015625,1.7637481689453125,0.8220367431640625
1701290863168514800,4.089514892578125,-0.2479248046875,1.317047119140625,0.610198974609375
1701290863178589700,4.099589599609375,-0.24658203125,0.94976806640625,0.4839630126953125
1701290863188664600,4.10966455078125,-0.229095458984375,0.74871826171875,0.4255828857421875
1701290863198739700,4.11973974609375,-0.19635009765625,0.7187957763671875,0.37420654296875
1701290863208814800,4.12981494140625,-0.1830902099609375,0.79638671875,0.3561248779296875
1701290863218888700,4.139888671875,-0.2081146240234375,0.9597320556640625,0.380706787109375
1701290863228964000,4.149964111328125,-0.252349853515625,1.147918701171875,0.4371185302734375
1701290863239039000,4.1600390625,-0.3268890380859375,1.2628021240234375,0.497772216796875
1701290863249114000,4.170114013671875,-0.3859405517578125,1.2192840576171875,0.545928955078125
1701290863259189200,4.180189208984375,-0.3763427734375,1.037689208984375,0.5502471923828125
1701290863269264000,4.190263916015625,-0.300933837890625,0.8573760986328125,0.5238494873046875
1701290863279339000,4.200339111328125,-0.220306396484375,0.7364959716796875,0.4911346435546875
1701290863289414100,4.2104140625,-0.1638031005859375,0.65509033203125,0.45733642578125
1701290863299489000,4.220489013671875,-0.107513427734375,0.59857177734375,0.411285400390625
1701290863309564200,4.230564208984375,-0.0541534423828125,0.5516357421875,0.3383026123046875
1701290863319639000,4.24063916015625,-0.0197296142578125,0.512786865234375,0.2459564208984375
1701290863329714200,4.250714111328125,-0.0092926025390625,0.485809326171875,0.127044677734375
1701290863339789000,4.2607890625,-0.010650634765625,0.46771240234375,0.021514892578125
1701290863349863200,4.27086328125,-0.0138702392578125,0.4521331787109375,-0.05859375
1701290863359938000,4.28093798828125,-0.0107269287109375,0.4400482177734375,-0.107177734375
1701290863370013000,4.291012939453125,-0.0124359130859375,0.4525299072265625,-0.13067626953125
1701290863380088000,4.301088134765625,-0.0157470703125,0.477752685546875,-0.1327362060546875
1701290863390163000,4.311162841796875,-0.0179290771484375,0.5070648193359375,-0.12005615234375
1701290863400238000,4.321238037109375,-0.0290069580078125,0.543853759765625,-0.09124755859375
1701290863410313200,4.331313232421875,-0.061126708984375,0.580230712890625,-0.055755615234375
1701290863420388000,4.34138818359375,-0.0846710205078125,0.6177978515625,-0.007781982421875
1701290863430463000,4.351462890625,-0.0970001220703125,0.647003173828125,0.0500335693359375
1701290863440537900,4.361537841796875,-0.10504150390625,0.6553497314453125,0.0991973876953125
1701290863450613000,4.371613037109375,-0.1006011962890625,0.64990234375,0.1411895751953125
1701290863460688100,4.381688232421875,-0.093170166015625,0.6414947509765625,0.19012451171875
1701290863470762000,4.391761962890625,-0.099365234375,0.63226318359375,0.24810791015625
1701290863480837000,4.401837158203125,-0.1413116455078125,0.6411590576171875,0.3354339599609375
1701290863490912000,4.411912109375,-0.19195556640625,0.65087890625,0.467926025390625
1701290863500987100,4.421987060546875,-0.2304534912109375,0.6607208251953125,0.6302642822265625
1701290863511062300,4.432062255859375,-0.278564453125,0.690032958984375,0.801239013671875
1701290863521137000,4.442136962890625,-0.3295135498046875,0.7441253662109375,0.980377197265625
1701290863531212000,4.4522119140625,-0.4282684326171875,0.825225830078125,1.1704254150390625
1701290863541287000,4.462286865234375,-0.6030731201171875,0.8780517578125,1.313323974609375
1701290863551362000,4.472362060546875,-0.718536376953125,0.8327484130859375,1.292388916015625
1701290863561437200,4.482437255859375,-0.645050048828125,0.7539215087890625,1.12176513671875
1701290863571512000,4.492511962890625,-0.478851318359375,0.721405029296875,0.8740081787109375
1701290863581587200,4.502587158203125,-0.3513946533203125,0.7606658935546875,0.60626220703125
1701290863591661800,4.512661865234375,-0.293304443359375,0.8010406494140625,0.341644287109375
1701290863601736200,4.522736083984375,-0.2828369140625,0.843292236328125,0.1536865234375
1701290863611811000,4.53281103515625,-0.284698486328125,0.8813018798828125,0.05963134765625
1701290863621886000,4.542885986328125,-0.2237396240234375,0.8984222412109375,-0.0019378662109375
1701290863631961000,4.552961181640625,-0.1213531494140625,0.89215087890625,-0.019561767578125
1701290863642036000,4.563035888671875,-0.0523223876953125,0.9323577880859375,0.0477447509765625
1701290863652111000,4.573111083984375,-0.034027099609375,1.0475006103515625,0.1278839111328125
1701290863662186200,4.583186279296875,-0.1155853271484375,1.2483978271484375,0.2415618896484375
1701290863672261000,4.59326123046875,-0.1724700927734375,1.4385528564453125,0.429901123046875
1701290863682336000,4.6033359375,-0.1201019287109375,1.46954345703125,0.5649566650390625
1701290863692411000,4.613410888671875,0.0091400146484375,1.427337646484375,0.54986572265625
1701290863702486000,4.623486083984375,0.246490478515625,1.3443450927734375,0.4954986572265625
1701290863712561200,4.63356103515625,0.2888641357421875,1.325286865234375,0.4554290771484375
1701290863722635000,4.643635009765625,0.155059814453125,1.4711456298828125,0.4753875732421875
1701290863732710100,4.653710205078125,-0.3397064208984375,1.834808349609375,0.6763763427734375
1701290863742785000,4.663784912109375,-1.35882568359375,2.088470458984375,1.0641632080078125
1701290863752860200,4.673860107421875,-1.1894683837890625,1.747711181640625,1.1925506591796875
1701290863762935000,4.68393505859375,0.0083770751953125,1.142242431640625,0.8473968505859375
1701290863773010000,4.694010009765625,0.2285003662109375,0.70989990234375,0.5971832275390625
1701290863783085000,4.7040849609375,0.23248291015625,0.5597381591796875,0.505767822265625
1701290863793160000,4.714159912109375,0.3787689208984375,0.6007537841796875,0.4606170654296875
1701290863803235000,4.724235107421875,0.4879302978515625,0.6876983642578125,0.4199066162109375
1701290863813310200,4.734310302734375,0.5863800048828125,0.790863037109375,0.3104400634765625
1701290863823385000,4.744385009765625,0.7391357421875,0.9416046142578125,0.212310791015625
1701290863833460000,4.7544599609375,0.8466949462890625,1.1448974609375,0.1913299560546875
1701290863843534000,4.7645341796875,0.768310546875,1.2993316650390625,0.231201171875
1701290863853609000,4.77460888671875,0.51666259765625,1.261016845703125,0.2998046875
1701290863863683800,4.784683837890625,0.2492523193359375,1.112640380859375,0.3577117919921875
1701290863873759000,4.794759033203125,-0.5335540771484375,0.9477081298828125,0.517791748046875
1701290863883834000,4.804834228515625,-1.3800048828125,0.8594970703125,0.6636505126953125
1701290863893909000,4.814908935546875,-0.5301666259765625,0.8442535400390625,0.4139556884765625
1701290863903984000,4.824984130859375,0.1643524169921875,0.81634521484375,0.3386688232421875
1701290863914059300,4.835059326171875,0.2080841064453125,0.8145294189453125,0.3782806396484375
1701290863924134100,4.845134033203125,0.113922119140625,0.7742767333984375,0.3931884765625
1701290863934209000,4.855208984375,-0.0607147216796875,0.7334442138671875,0.4104156494140625
1701290863944284000,4.865283935546875,-0.2590789794921875,0.7403411865234375,0.4051055908203125
1701290863954359000,4.875359130859375,-0.279144287109375,0.7583160400390625,0.381591796875
1701290863964433000,4.885432861328125,-0.1555328369140625,0.76397705078125,0.3558197021484375
1701290863974508000,4.895508056640625,-0.0316162109375,0.7490386962890625,0.3427581787109375
1701290863984583200,4.905583251953125,0.0414886474609375,0.723846435546875,0.347015380859375
1701290863994658000,4.915657958984375,0.0577239990234375,0.6999969482421875,0.367401123046875
1701290864004733200,4.925733154296875,0.0101776123046875,0.6803436279296875,0.3926849365234375
1701290864014808000,4.93580810546875,-0.104705810546875,0.653594970703125,0.4092254638671875
1701290864024883000,4.945883056640625,-0.23065185546875,0.6381072998046875,0.36212158203125
1701290864034958000,4.9559580078125,-0.265411376953125,0.6597137451171875,0.2163238525390625
1701290864045033000,4.966032958984375,-0.194366455078125,0.7172698974609375,0.1175384521484375
1701290864055108000,4.976108154296875,-0.09259033203125,0.76611328125,0.1198577880859375
1701290864065183200,4.986183349609375,-0.0124969482421875,0.798431396484375,0.1855621337890625
1701290864075258000,4.996258056640625,-0.0258941650390625,0.80023193359375,0.273712158203125
1701290864085332200,5.006332275390625,-0.146209716796875,0.7790069580078125,0.3717803955078125
1701290864095407000,5.016406982421875,-0.203521728515625,0.7517547607421875,0.450653076171875
1701290864105482000,5.02648193359375,-0.046600341796875,0.73809814453125,0.45733642578125
1701290864115556900,5.036556884765625,0.1743621826171875,0.7330780029296875,0.416961669921875
1701290864125632000,5.046632080078125,0.2564544677734375,0.73150634765625,0.3836517333984375
1701290864135707100,5.05670703125,0.2514801025390625,0.6952667236328125,0.3684844970703125
1701290864145782000,5.066781982421875,0.150726318359375,0.6387939453125,0.4234161376953125
1701290864155857200,5.076857177734375,-0.05352783203125,0.6727447509765625,0.5953521728515625
1701290864165932000,5.08693212890625,-0.2356109619140625,0.8019866943359375,0.80419921875
1701290864176007000,5.0970068359375,-0.2017364501953125,0.8881072998046875,0.913055419921875
1701290864186082000,5.10708203125,-0.0565032958984375,0.9029541015625,0.90826416015625
1701290864196157000,5.117156982421875,-0.1482086181640625,0.934844970703125,0.9306793212890625
1701290864206231000,5.12723095703125,-0.4322357177734375,0.9827117919921875,0.9882049560546875
1701290864216306000,5.137305908203125,-0.6599578857421875,1.0148773193359375,1.021575927734375
1701290864226381000,5.147381103515625,-0.6043853759765625,1.109222412109375,0.989288330078125
1701290864236456000,5.1574560546875,-0.4046173095703125,1.2568817138671875,0.8177642822265625
1701290864246531000,5.167531005859375,-0.32440185546875,1.364715576171875,0.641815185546875
1701290864256606200,5.177606201171875,-0.1904754638671875,1.3736114501953125,0.4659271240234375
1701290864266680800,5.187680908203125,-0.040679931640625,1.3414154052734375,0.3758087158203125
1701290864276756000,5.197755859375,0.0231170654296875,1.3718719482421875,0.401397705078125
1701290864286830800,5.207830810546875,0.0225677490234375,1.508453369140625,0.47021484375
1701290864296906000,5.217906005859375,-0.0173187255859375,1.6816864013671875,0.4938201904296875
1701290864306981000,5.227981201171875,-0.0927581787109375,1.7704010009765625,0.4156036376953125
1701290864317055000,5.238054931640625,-0.0897369384765625,1.6360626220703125,0.323394775390625
1701290864327130000,5.248130126953125,-0.0219879150390625,1.27764892578125,0.334197998046875
1701290864337205000,5.258205078125,-0.0203399658203125,0.9844818115234375,0.4387969970703125
1701290864347280100,5.268280029296875,-0.0882110595703125,0.845611572265625,0.5353851318359375
1701290864357355000,5.27835498046875,-0.135223388671875,0.8621826171875,0.5693511962890625
1701290864367430000,5.288429931640625,-0.1376495361328125,0.967254638671875,0.62042236328125
1701290864377505000,5.298505126953125,-0.1677703857421875,1.063507080078125,0.73040771484375
1701290864387580000,5.308579833984375,-0.22088623046875,1.0843658447265625,0.8039703369140625
1701290864397655000,5.318655029296875,-0.2187347412109375,1.0107421875,0.761444091796875
1701290864407730200,5.328730224609375,-0.175994873046875,0.8988800048828125,0.60003662109375
1701290864417805000,5.33880517578125,-0.162750244140625,0.79937744140625,0.45086669921875
1701290864427880000,5.3488798828125,-0.16937255859375,0.726715087890625,0.3597564697265625
1701290864437954000,5.3589541015625,-0.1633758544921875,0.68670654296875,0.3002471923828125
1701290864448029000,5.36902880859375,-0.1326751708984375,0.649871826171875,0.256927490234375
1701290864458103800,5.379103759765625,-0.0751800537109375,0.6134490966796875,0.2065277099609375
1701290864468179000,5.389178955078125,-0.023651123046875,0.586273193359375,0.1383056640625
1701290864478254000,5.399254150390625,0.0011138916015625,0.559173583984375,0.0626220703125
1701290864488329000,5.409328857421875,0.0127105712890625,0.5282135009765625,-0.0088958740234375
1701290864498404000,5.419404052734375,0.025909423828125,0.4994659423828125,-0.0746307373046875
1701290864508479200,5.429479248046875,0.0353546142578125,0.4674072265625,-0.118896484375
1701290864518553900,5.439553955078125,0.0322723388671875,0.4561309814453125,-0.1403350830078125
1701290864528629000,5.44962890625,0.0070343017578125,0.454620361328125,-0.1473388671875
1701290864538704000,5.459703857421875,-0.02325439453125,0.4672393798828125,-0.161895751953125
1701290864548779000,5.469779052734375,-0.056915283203125,0.5149078369140625,-0.1591339111328125
1701290864558852900,5.479852783203125,-0.0985107421875,0.5626678466796875,-0.116851806640625
1701290864568928000,5.489927978515625,-0.112152099609375,0.5846405029296875,-0.050201416015625
1701290864579003100,5.500003173828125,-0.0810699462890625,0.592803955078125,0.0455169677734375
1701290864589078000,5.510078125,-0.0451202392578125,0.61407470703125,0.1517333984375
1701290864599153200,5.520153076171875,-0.0233917236328125,0.6578216552734375,0.27392578125
1701290864609227800,5.530227783203125,-0.0345611572265625,0.7513275146484375,0.417236328125
1701290864619303000,5.540302978515625,-0.1174468994140625,0.855194091796875,0.6371002197265625
1701290864629378000,5.5503779296875,-0.2400360107421875,0.9132080078125,0.9309844970703125
1701290864639453000,5.560452880859375,-0.3551483154296875,0.892547607421875,1.157562255859375
1701290864649528000,5.570528076171875,-0.412750244140625,0.81207275390625,1.2529144287109375
1701290864659603200,5.580603271484375,-0.38201904296875,0.6820831298828125,1.187225341796875
1701290864669678000,5.590677978515625,-0.326690673828125,0.558746337890625,1.0735626220703125
1701290864679752200,5.600752197265625,-0.306121826171875,0.49090576171875,0.94488525390625
1701290864689827000,5.6108271484375,-0.2938079833984375,0.474456787109375,0.7855224609375
1701290864699902000,5.62090185546875,-0.2609405517578125,0.527557373046875,0.6104736328125
1701290864709976800,5.630976806640625,-0.2206573486328125,0.6447601318359375,0.475067138671875
1701290864720052000,5.641052001953125,-0.213592529296875,0.781463623046875,0.3713836669921875
1701290864730127000,5.651127197265625,-0.2505645751953125,0.90484619140625,0.2841796875
1701290864740202000,5.661201904296875,-0.304901123046875,1.004486083984375,0.2135162353515625
1701290864750277000,5.671277099609375,-0.3394317626953125,1.07489013671875,0.168792724609375
1701290864760352000,5.68135205078125,-0.31982421875,1.0786590576171875,0.13824462890625
1701290864770427000,5.691427001953125,-0.2823486328125,1.046051025390625,0.1607666015625
1701290864780502000,5.701501953125,-0.236907958984375,1.0223541259765625,0.2447967529296875
1701290864790575900,5.711575927734375,-0.1612701416015625,1.141326904296875,0.4292755126953125
1701290864800651000,5.721651123046875,-0.143890380859375,1.3733978271484375,0.6635894775390625
1701290864810726000,5.731725830078125,-0.4185638427734375,1.5995330810546875,0.8508758544921875
1701290864820801000,5.741801025390625,-0.804718017578125,1.6059112548828125,0.96356201171875
1701290864830876200,5.751876220703125,-0.5731201171875,1.2943115234375,0.91961669921875
1701290864840951000,5.761950927734375,0.0777740478515625,1.1598358154296875,0.7264251708984375
1701290864851026200,5.772026123046875,0.477874755859375,1.1999359130859375,0.49456787109375
1701290864861100800,5.782100830078125,0.4273681640625,1.2744598388671875,0.3554534912109375
1701290864871176000,5.792176025390625,0.181671142578125,1.441070556640625,0.3526763916015625
1701290864881251000,5.8022509765625,-0.58477783203125,1.6606597900390625,0.392303466796875
1701290864891326000,5.812325927734375,-0.7879638671875,1.3984375,0.573272705078125
1701290864901401000,5.822401123046875,0.075775146484375,0.962982177734375,0.5817108154296875
1701290864911475000,5.832474853515625,0.423309326171875,0.7981109619140625,0.5386505126953125
1701290864921550000,5.842550048828125,0.289886474609375,0.657958984375,0.53717041015625
1701290864931625000,5.852625,0.22088623046875,0.5537567138671875,0.537689208984375
1701290864941700000,5.8627001953125,0.33575439453125,0.6298370361328125,0.543609619140625
1701290864951775000,5.87277490234375,0.503173828125,0.8544921875,0.532440185546875
1701290864961849900,5.882849853515625,0.6031036376953125,1.0567169189453125,0.482391357421875
1701290864971925000,5.892925048828125,0.5884552001953125,1.32012939453125,0.5169525146484375
1701290864982000000,5.903000244140625,0.4883880615234375,1.5048675537109375,0.5696563720703125
1701290864992075000,5.913074951171875,0.295135498046875,1.36083984375,0.525115966796875
1701290865002150100,5.923150146484375,-0.0360870361328125,1.0429534912109375,0.501708984375
1701290865012224000,5.93322412109375,-0.482391357421875,0.8433990478515625,0.57879638671875
1701290865022299100,5.943299072265625,-0.6533050537109375,0.755401611328125,0.53460693359375
1701290865032374000,5.9533740234375,-0.3129425048828125,0.7657470703125,0.409027099609375
1701290865042449000,5.963448974609375,0.0272979736328125,0.8072052001953125,0.3910064697265625
1701290865052524000,5.97352392578125,0.1038665771484375,0.8270721435546875,0.408294677734375
1701290865062599000,5.983598876953125,0.0668487548828125,0.8176422119140625,0.3968658447265625
1701290865072674000,5.993674072265625,-0.004364013671875,0.788787841796875,0.3650970458984375
1701290865082749000,6.0037490234375,-0.07757568359375,0.7577362060546875,0.3603515625
1701290865092824000,6.013823974609375,-0.104705810546875,0.741058349609375,0.355926513671875
1701290865102899200,6.023899169921875,-0.0921783447265625,0.7383880615234375,0.3433837890625
1701290865112973800,6.033973876953125,-0.0904693603515625,0.750518798828125,0.3517913818359375
1701290865123049000,6.044049072265625,-0.1194915771484375,0.79974365234375,0.4109344482421875
1701290865133122800,6.054122802734375,-0.1641998291015625,0.833251953125,0.4780731201171875
1701290865143198000,6.064197998046875,-0.2295379638671875,0.7904052734375,0.513824462890625
1701290865153273000,6.074273193359375,-0.239013671875,0.718414306640625,0.510894775390625
1701290865163348000,6.084347900390625,-0.2055206298828125,0.6587677001953125,0.4368743896484375
1701290865173423000,6.094423095703125,-0.21868896484375,0.62310791015625,0.31744384765625
1701290865183498000,6.104498046875,-0.2308807373046875,0.6240692138671875,0.2116851806640625
1701290865193573000,6.114572998046875,-0.175750732421875,0.68560791015625,0.1781768798828125
1701290865203648000,6.12464794921875,-0.0926055908203125,0.7778167724609375,0.19842529296875
1701290865213723000,6.134722900390625,-0.0288848876953125,0.826995849609375,0.2299346923828125
1701290865223798000,6.144798095703125,0.010467529296875,0.8010101318359375,0.24078369140625
1701290865233871600,6.15487158203125,0.030853271484375,0.7623138427734375,0.2403564453125
1701290865243946800,6.16494677734375,0.0707550048828125,0.750091552734375,0.2854766845703125
1701290865254021600,6.175021728515625,0.1398468017578125,0.74884033203125,0.381591796875
1701290865264096800,6.1850966796875,0.1634979248046875,0.7326812744140625,0.4698638916015625
1701290865274172000,6.195171875,0.104248046875,0.7091217041015625,0.53070068359375
1701290865284246800,6.205246826171875,0.021575927734375,0.6888580322265625,0.572723388671875
1701290865294321700,6.21532177734375,-0.0280914306640625,0.693634033203125,0.61285400390625
1701290865304396800,6.225396728515625,-0.0556182861328125,0.722564697265625,0.640655517578125
1701290865314471700,6.2354716796875,-0.13861083984375,0.7748260498046875,0.6198272705078125
1701290865324546800,6.245546875,-0.1630706787109375,0.8956146240234375,0.5294189453125
1701290865334621700,6.25562158203125,-0.0017547607421875,1.0135650634765625,0.41241455078125
1701290865344696800,6.26569677734375,0.137939453125,1.0672149658203125,0.3509063720703125
1701290865354770700,6.275770751953125,0.1272125244140625,0.9917449951171875,0.3695831298828125
1701290865364845800,6.285845703125,-0.05926513671875,0.76507568359375,0.5001983642578125
1701290865374921000,6.2959208984375,-0.3317718505859375,0.60784912109375,0.7398834228515625
1701290865384995600,6.30599560546875,-0.400390625,0.64703369140625,1.019622802734375
1701290865395070700,6.31607080078125,-0.132598876953125,0.9089508056640625,1.186004638671875
1701290865405145600,6.3261455078125,-0.0399932861328125,1.1696929931640625,1.1545867919921875
1701290865415220700,6.336220703125,-0.1725311279296875,1.2939605712890625,1.035186767578125
1701290865425296000,6.3462958984375,-0.213775634765625,1.2574462890625,0.8743896484375
1701290865435370800,6.356370849609375,-0.200531005859375,1.0908966064453125,0.6902313232421875
1701290865445446000,6.36644580078125,-0.19500732421875,1.0101470947265625,0.5986785888671875
1701290865455520800,6.376520751953125,-0.1832427978515625,1.0377349853515625,0.5290069580078125
1701290865465595000,6.386594970703125,-0.15771484375,1.1313323974609375,0.4819488525390625
1701290865475669800,6.396669677734375,-0.1094818115234375,1.30963134765625,0.5151824951171875
1701290865485744600,6.40674462890625,-0.0807952880859375,1.4811248779296875,0.5450592041015625
1701290865495819800,6.41681982421875,-0.10858154296875,1.6224517822265625,0.5382080078125
1701290865505894700,6.426894775390625,-0.1305084228515625,1.6514434814453125,0.4944610595703125
1701290865515969800,6.4369697265625,-0.1002197265625,1.4777679443359375,0.4185638427734375
1701290865526045000,6.447044921875,-0.0816650390625,1.1296539306640625,0.3650970458984375
1701290865536119800,6.457119873046875,-0.1060791015625,0.8527679443359375,0.3509674072265625
1701290865546194700,6.467194580078125,-0.149017333984375,0.705718994140625,0.3372344970703125
1701290865556269600,6.47726953125,-0.1855621337890625,0.6717529296875,0.326202392578125
1701290865566344700,6.4873447265625,-0.1856842041015625,0.73480224609375,0.362152099609375
1701290865576418600,6.49741845703125,-0.18701171875,0.8679962158203125,0.4410247802734375
1701290865586493700,6.50749365234375,-0.2099609375,1.0157318115234375,0.528411865234375
1701290865596568800,6.51756884765625,-0.2234954833984375,1.1047210693359375,0.5858612060546875
1701290865606643700,6.527643798828125,-0.2142791748046875,1.0902557373046875,0.59881591796875
1701290865616718800,6.53771875,-0.21630859375,1.00323486328125,0.563262939453125
1701290865626794000,6.5477939453125,-0.2524871826171875,0.913238525390625,0.504180908203125
1701290865636868600,6.55786865234375,-0.2748260498046875,0.8465423583984375,0.4435577392578125
1701290865646943700,6.56794384765625,-0.2600250244140625,0.810272216796875,0.3883056640625
1701290865657018600,6.5780185546875,-0.2288360595703125,0.7897186279296875,0.3321533203125
1701290865667093800,6.58809375,-0.183502197265625,0.7678070068359375,0.27899169921875
1701290865677169000,6.5981689453125,-0.1359100341796875,0.7456512451171875,0.22845458984375
1701290865687242800,6.60824267578125,-0.103729248046875,0.7184906005859375,0.1805419921875
1701290865697318000,6.61831787109375,-0.09454345703125,0.6865234375,0.144012451171875
1701290865707392800,6.628392822265625,-0.11102294921875,0.650787353515625,0.1151123046875
1701290865717468000,6.638468017578125,-0.1319732666015625,0.6219635009765625,0.107666015625
1701290865727542500,6.64854248046875,-0.1490478515625,0.610687255859375,0.1224517822265625
1701290865737617700,6.65861767578125,-0.14056396484375,0.5987701416015625,0.1384124755859375
1701290865747692800,6.66869287109375,-0.1212921142578125,0.5786285400390625,0.146026611328125
1701290865757767700,6.678767578125,-0.1020660400390625,0.5557861328125,0.1464385986328125
1701290865767842800,6.6888427734375,-0.0891876220703125,0.5316619873046875,0.142578125
1701290865777918000,6.69891796875,-0.0947723388671875,0.510345458984375,0.1363372802734375
1701290865787991800,6.70899169921875,-0.1109466552734375,0.4976043701171875,0.1289215087890625
1701290865798067000,6.71906689453125,-0.1315155029296875,0.5034637451171875,0.1328582763671875
1701290865808141800,6.729141845703125,-0.1457061767578125,0.515655517578125,0.158416748046875
1701290865818216700,6.739216796875,-0.132049560546875,0.52191162109375,0.19464111328125
1701290865828291600,6.74929150390625,-0.1048736572265625,0.52825927734375,0.2490081787109375
1701290865838366700,6.75936669921875,-0.1005401611328125,0.551300048828125,0.3347320556640625
1701290865848441900,6.76944189453125,-0.140777587890625,0.5870208740234375,0.4694976806640625
1701290865858516700,6.779516845703125,-0.20343017578125,0.622344970703125,0.6691741943359375
1701290865868591900,6.789591796875,-0.2960052490234375,0.6469573974609375,0.8704071044921875
1701290865878666800,6.799666748046875,-0.39276123046875,0.6422576904296875,1.0229339599609375
1701290865888740900,6.809740966796875,-0.403778076171875,0.632476806640625,1.1031951904296875
1701290865898815700,6.819815673828125,-0.32659912109375,0.62567138671875,1.0989990234375
1701290865908890600,6.829890625,-0.2420806884765625,0.63104248046875,1.016448974609375
1701290865918965800,6.8399658203125,-0.1862640380859375,0.6530303955078125,0.884918212890625
1701290865929040600,6.85004052734375,-0.168609619140625,0.68896484375,0.7221221923828125
1701290865939115800,6.86011572265625,-0.1575927734375,0.7375335693359375,0.5728912353515625
1701290865949191000,6.87019091796875,-0.163421630859375,0.7929534912109375,0.4422760009765625
1701290865959265800,6.880265869140625,-0.2139892578125,0.846954345703125,0.336578369140625
1701290865969341000,6.8903408203125,-0.2768096923828125,0.8907470703125,0.2913970947265625
1701290865979415600,6.90041552734375,-0.3114776611328125,0.9184722900390625,0.3111114501953125
1701290865989490700,6.91049072265625,-0.3148956298828125,0.926605224609375,0.368499755859375
1701290865999565800,6.92056591796875,-0.280517578125,0.9864959716796875,0.4593658447265625
1701290866009639700,6.9306396484375,-0.2125701904296875,1.1636505126953125,0.5876922607421875
1701290866019714800,6.94071484375,-0.30303955078125,1.3856658935546875,0.73046875
1701290866029789700,6.950789794921875,-0.5361785888671875,1.543914794921875,0.844940185546875
1701290866039864800,6.96086474609375,-0.4177703857421875,1.5036163330078125,0.7922821044921875
1701290866049940000,6.97093994140625,0.0494537353515625,1.3599395751953125,0.5567169189453125
1701290866060014800,6.981014892578125,0.309356689453125,1.293060302734375,0.32403564453125
1701290866070089700,6.99108984375,0.2314605712890625,1.307098388671875,0.199981689453125
1701290866080164600,7.00116455078125,-0.081787109375,1.347503662109375,0.0138092041015625
1701290866090239700,7.01123974609375,-0.3931884765625,1.4821319580078125,-0.1168975830078125
1701290866100315000,7.02131494140625,-0.07073974609375,1.6463623046875,0.1814422607421875
1701290866110389800,7.0313896484375,0.40081787109375,1.67254638671875,0.5180511474609375
1701290866120464000,7.0414638671875,0.51837158203125,1.4951324462890625,0.5739288330078125
1701290866130538800,7.051538818359375,0.316070556640625,1.22711181640625,0.5296783447265625
1701290866140614000,7.06161376953125,-0.2045135498046875,0.9581451416015625,0.6568756103515625
1701290866150688800,7.071688720703125,-0.56658935546875,0.708465576171875,0.857025146484375
1701290866160763600,7.081763671875,0.018157958984375,0.6473236083984375,0.7713470458984375
1701290866170838800,7.0918388671875,0.3722076416015625,0.7483062744140625,0.6788482666015625
1701290866180913700,7.10191357421875,0.4202117919921875,0.9709320068359375,0.6545257568359375
1701290866190988800,7.11198876953125,0.3413848876953125,1.101043701171875,0.534576416015625
1701290866201064000,7.12206396484375,0.2610015869140625,1.140594482421875,0.3716583251953125
1701290866211138800,7.132138916015625,0.21624755859375,1.1391448974609375,0.2470703125
1701290866221213000,7.142212890625,0.194854736328125,1.101715087890625,0.1654052734375
1701290866231288300,7.152288330078125,0.1728057861328125,1.05633544921875,0.103729248046875
1701290866241363200,7.16236328125,0.1237030029296875,1.014373779296875,0.0693511962890625
1701290866251438300,7.172438232421875,0.03521728515625,0.9724273681640625,0.0648040771484375
1701290866261513500,7.182513427734375,-0.03936767578125,0.92852783203125,0.135040283203125
1701290866271588400,7.19258837890625,-0.057159423828125,0.8587799072265625,0.3222198486328125
1701290866281663500,7.20266357421875,-0.020751953125,0.771240234375,0.46533203125
1701290866291738400,7.21273828125,0.003387451171875,0.7030029296875,0.548095703125
1701290866301813200,7.222813232421875,-0.0211334228515625,0.6596221923828125,0.62823486328125
1701290866311888400,7.232888427734375,-0.072357177734375,0.6475830078125,0.70184326171875
1701290866321962200,7.242962158203125,-0.107269287109375,0.684417724609375,0.755340576171875
1701290866332037400,7.253037353515625,-0.09320068359375,0.7523040771484375,0.7507476806640625
1701290866342112300,7.2631123046875,-0.0482635498046875,0.773681640625,0.6951904296875
1701290866352187400,7.2731875,-0.0351715087890625,0.7421722412109375,0.6411895751953125
1701290866362262500,7.283262451171875,-0.0845947265625,0.7090606689453125,0.6079559326171875
1701290866372337400,7.29333740234375,-0.1576690673828125,0.6841278076171875,0.588958740234375
1701290866382412500,7.30341259765625,-0.19586181640625,0.6691436767578125,0.55523681640625
1701290866392487200,7.313487060546875,-0.1854705810546875,0.65814208984375,0.4723968505859375
1701290866402562300,7.323562255859375,-0.1426544189453125,0.644775390625,0.35369873046875
1701290866412637400,7.333637451171875,-0.0899658203125,0.6522216796875,0.26629638671875
1701290866422712300,7.34371240234375,-0.0911712646484375,0.6795196533203125,0.2494659423828125
1701290866432786400,7.353786376953125,-0.1294097900390625,0.746429443359375,0.289581298828125
1701290866442861300,7.363861328125,-0.0894012451171875,0.81646728515625,0.2942352294921875
1701290866452936400,7.3739365234375,-0.00469970703125,0.81744384765625,0.2686767578125
1701290866463011300,7.38401123046875,0.0329742431640625,0.7788238525390625,0.2731475830078125
1701290866473086500,7.39408642578125,0.047821044921875,0.7248077392578125,0.289520263671875
1701290866483161300,7.404161376953125,0.0613555908203125,0.658233642578125,0.307281494140625
1701290866493236200,7.414236328125,0.062164306640625,0.6061553955078125,0.350006103515625
1701290866503311400,7.424311279296875,0.0533599853515625,0.5994415283203125,0.410888671875
1701290866513386500,7.434386474609375,-0.0030517578125,0.630859375,0.4822235107421875
1701290866523461400,7.44446142578125,-0.0543670654296875,0.6880950927734375,0.5436248779296875
1701290866533536500,7.45453662109375,-0.0370025634765625,0.7598419189453125,0.562957763671875
1701290866543610400,7.4646103515625,0.0284576416015625,0.826934814453125,0.5180816650390625
1701290866553685500,7.474685546875,0.025726318359375,0.8648223876953125,0.4373626708984375
1701290866563760400,7.484760498046875,0.0059051513671875,0.857513427734375,0.347686767578125
1701290866573835300,7.494835205078125,0.0128173828125,0.8446807861328125,0.2890625
1701290866583910400,7.504910400390625,0.068572998046875,0.88580322265625,0.295501708984375
1701290866593985300,7.5149853515625,0.117950439453125,0.9345245361328125,0.330535888671875
1701290866604060400,7.525060302734375,0.0904693603515625,0.94451904296875,0.419921875
1701290866614135300,7.53513525390625,-0.0018157958984375,0.9365692138671875,0.5675506591796875
1701290866624210400,7.54521044921875,-0.1041107177734375,0.934539794921875,0.76544189453125
1701290866634285600,7.55528564453125,-0.162841796875,0.949676513671875,0.972930908203125
1701290866644359400,7.565359375,-0.2584381103515625,0.9630584716796875,1.1309051513671875
1701290866654434600,7.5754345703125,-0.375640869140625,0.9820098876953125,1.223358154296875
1701290866664509200,7.58550927734375,-0.4378814697265625,1.0349273681640625,1.1852569580078125
1701290866674584300,7.595584228515625,-0.3923797607421875,1.1110382080078125,1.0223388671875
1701290866684659500,7.605659423828125,-0.2864990234375,1.1614837646484375,0.795501708984375
1701290866694734300,7.615734375,-0.254974365234375,1.1964263916015625,0.6163482666015625
1701290866704809500,7.6258095703125,-0.2094879150390625,1.195648193359375,0.4976959228515625
1701290866714884400,7.63588427734375,-0.1322784423828125,1.1816864013671875,0.4296112060546875
1701290866724959500,7.64595947265625,-0.1004486083984375,1.2178955078125,0.440277099609375
1701290866735034400,7.656034423828125,-0.106689453125,1.31976318359375,0.48748779296875
1701290866745109200,7.666109130859375,-0.1215972900390625,1.44842529296875,0.5478363037109375
1701290866755183400,7.676183349609375,-0.1128692626953125,1.5094757080078125,0.61578369140625
1701290866765258200,7.68625830078125,-0.081024169921875,1.367919921875,0.639373779296875
1701290866775333400,7.69633349609375,-0.059783935546875,1.07635498046875,0.6194305419921875
1701290866785408500,7.706408447265625,-0.09088134765625,0.879364013671875,0.578826904296875
1701290866795483400,7.7164833984375,-0.1136474609375,0.78826904296875,0.521697998046875
1701290866805558500,7.72655859375,-0.128204345703125,0.7623443603515625,0.5121002197265625
1701290866815633400,7.73663330078125,-0.172698974609375,0.7872314453125,0.5571441650390625
1701290866825708300,7.746708251953125,-0.1984405517578125,0.8431549072265625,0.6110382080078125
1701290866835783400,7.756783447265625,-0.1793365478515625,0.8839263916015625,0.6174468994140625
1701290866845858300,7.7668583984375,-0.1321868896484375,0.88323974609375,0.5543212890625
1701290866855932400,7.776932373046875,-0.1025543212890625,0.84814453125,0.448516845703125
1701290866866007300,7.78700732421875,-0.100830078125,0.7918853759765625,0.3553924560546875
1701290866876082400,7.79708251953125,-0.1106719970703125,0.740203857421875,0.286590576171875
1701290866886157300,7.8071572265625,-0.1125335693359375,0.704986572265625,0.2391357421875
1701290866896232400,7.817232421875,-0.1004791259765625,0.6795654296875,0.2077789306640625
1701290866906307600,7.8273076171875,-0.0779266357421875,0.6580810546875,0.17919921875
1701290866916382200,7.83738232421875,-0.064697265625,0.63116455078125,0.1426849365234375
1701290866926457300,7.847457275390625,-0.06695556640625,0.6076812744140625,0.110809326171875
1701290866936532500,7.857532470703125,-0.0834808349609375,0.593505859375,0.0877838134765625
1701290866946607400,7.867607421875,-0.10015869140625,0.5838165283203125,0.0778350830078125
1701290866956682500,7.8776826171875,-0.1016387939453125,0.5644073486328125,0.070037841796875
1701290866966756400,7.88775634765625,-0.087188720703125,0.5402374267578125,0.0546417236328125
1701290866976831500,7.89783154296875,-0.1050567626953125,0.52911376953125,0.0436553955078125
1701290866986906400,7.90790625,-0.1175537109375,0.536590576171875,0.05047607421875
1701290866996981500,7.9179814453125,-0.145782470703125,0.5658111572265625,0.0711517333984375
1701290867007056400,7.928056396484375,-0.2056884765625,0.6284637451171875,0.10040283203125
1701290867017131300,7.93813134765625,-0.245330810546875,0.720489501953125,0.1610107421875
1701290867027206400,7.948206298828125,-0.2147064208984375,0.7752685546875,0.26312255859375
1701290867037281300,7.95828125,-0.1540069580078125,0.7587127685546875,0.387420654296875
1701290867047356400,7.9683564453125,-0.1504364013671875,0.71661376953125,0.52069091796875
1701290867057431600,7.978431640625,-0.2043304443359375,0.7001800537109375,0.640167236328125
1701290867067505400,7.98850537109375,-0.292083740234375,0.729522705078125,0.7451629638671875
1701290867077580500,7.99858056640625,-0.365234375,0.77655029296875,0.825775146484375
1701290867087655400,8.008655517578125,-0.39166259765625,0.7907257080078125,0.869476318359375
1701290867097730300,8.018730224609374,-0.354705810546875,0.728302001953125,0.8412322998046875
1701290867107805400,8.028805419921875,-0.29791259765625,0.654022216796875,0.775726318359375
1701290867117880300,8.03888037109375,-0.2337188720703125,0.61395263671875,0.72589111328125
1701290867127955500,8.04895556640625,-0.1258087158203125,0.59832763671875,0.6877899169921875
1701290867138030300,8.0590302734375,-0.047821044921875,0.6089935302734375,0.647552490234375
1701290867148105500,8.06910546875,-0.0132293701171875,0.6513824462890625,0.6027679443359375
1701290867158180400,8.079180419921874,-0.02215576171875,0.72113037109375,0.553436279296875
1701290867168254500,8.08925439453125,-0.079742431640625,0.8172760009765625,0.49090576171875
1701290867178329300,8.099329345703126,-0.17999267578125,0.91558837890625,0.4354705810546875
1701290867188404200,8.109404296875,-0.2888031005859375,0.9651641845703125,0.4045562744140625
1701290867198479400,8.119479248046876,-0.34600830078125,0.9545440673828125,0.41668701171875
1701290867208554200,8.12955419921875,-0.306365966796875,0.9975738525390625,0.521636962890625
1701290867218629400,8.13962939453125,-0.253570556640625,1.0972900390625,0.6760711669921875
1701290867228704500,8.14970458984375,-0.387176513671875,1.2022247314453125,0.8502197265625
1701290867238778600,8.159778564453125,-0.456207275390625,1.2540130615234375,1.0322113037109375
1701290867248853500,8.169853515625,-0.1382293701171875,1.2337188720703125,1.08929443359375
1701290867258928600,8.1799287109375,0.23681640625,1.2548980712890625,0.9771881103515625
1701290867269002500,8.19000244140625,0.22247314453125,1.3153076171875,0.756011962890625
1701290867279077600,8.20007763671875,-0.22979736328125,1.3342132568359375,0.3609466552734375
1701290867289152500,8.210152587890626,-0.86968994140625,1.3610687255859375,0.0270233154296875
1701290867299227400,8.220227294921875,-0.455474853515625,1.3689117431640625,0.2055511474609375
1701290867309302500,8.230302490234376,0.2152252197265625,1.21392822265625,0.3948516845703125
1701290867319377400,8.24037744140625,0.372039794921875,1.11407470703125,0.410614013671875
1701290867329452500,8.25045263671875,0.3612823486328125,1.17578125,0.4617156982421875
1701290867339527700,8.260527587890625,0.3303070068359375,1.2362518310546875,0.49359130859375
1701290867349602600,8.2706025390625,0.2667999267578125,1.2523651123046875,0.46673583984375
1701290867359677400,8.280677490234375,0.1922607421875,1.1537322998046875,0.3798828125
1701290867369751600,8.29075146484375,0.1807861328125,0.988922119140625,0.2902679443359375
1701290867379826400,8.300826416015624,0.24456787109375,0.8498992919921875,0.267120361328125
1701290867389901300,8.3109013671875,0.3072052001953125,0.8318634033203125,0.3061370849609375
1701290867399976400,8.3209765625,0.29925537109375,0.9656829833984375,0.389678955078125
1701290867410051600,8.331051513671875,0.20880126953125,1.0452117919921875,0.513275146484375
1701290867420126500,8.34112646484375,0.11968994140625,0.952667236328125,0.60107421875
1701290867430201600,8.35120166015625,0.07196044921875,0.83001708984375,0.6364898681640625
1701290867440276700,8.36127685546875,0.0082550048828125,0.777313232421875,0.670440673828125
1701290867450351400,8.371351318359375,-0.078857421875,0.814422607421875,0.74273681640625
1701290867460426500,8.381426513671874,-0.122314453125,0.855255126953125,0.762908935546875
1701290867470501400,8.39150146484375,-0.1100006103515625,0.8338623046875,0.6602935791015625
1701290867480575500,8.401575439453126,-0.1074676513671875,0.795440673828125,0.490692138671875
1701290867490650400,8.411650390625,-0.1191558837890625,0.7727813720703125,0.364349365234375
1701290867500725500,8.4217255859375,-0.1148834228515625,0.7713623046875,0.289581298828125
1701290867510800600,8.431800537109375,-0.1038665771484375,0.7941436767578125,0.2527923583984375
1701290867520875500,8.44187548828125,-0.1001434326171875,0.8159027099609375,0.248016357421875
1701290867530950700,8.45195068359375,-0.09429931640625,0.797882080078125,0.2636260986328125
1701290867541025300,8.462025390625,-0.0929412841796875,0.761627197265625,0.295135498046875
1701290867551100400,8.472100341796875,-0.0648651123046875,0.76983642578125,0.3578948974609375
1701290867561175600,8.482175537109375,-0.017852783203125,0.8206024169921875,0.4587860107421875
1701290867571249400,8.49224951171875,0.001495361328125,0.8307342529296875,0.5413818359375
1701290867581324500,8.502324462890625,-0.0527191162109375,0.752899169921875,0.563140869140625
1701290867591399400,8.5123994140625,-0.18817138671875,0.6428680419921875,0.54742431640625
1701290867601474600,8.522474609375,-0.3010406494140625,0.5628509521484375,0.5076904296875
1701290867611549700,8.5325498046875,-0.2389373779296875,0.5587005615234375,0.442626953125
1701290867621624600,8.54262451171875,-0.04046630859375,0.6285858154296875,0.39385986328125
1701290867631699500,8.552699462890626,0.05877685546875,0.6954193115234375,0.3729248046875
1701290867641774300,8.5627744140625,0.0616607666015625,0.702789306640625,0.3418121337890625
1701290867651849500,8.572849365234376,0.006988525390625,0.669525146484375,0.3148040771484375
1701290867661924600,8.582924560546875,-0.0941619873046875,0.6745758056640625,0.3482208251953125
1701290867671998500,8.59299853515625,-0.170379638671875,0.7745208740234375,0.448455810546875
1701290867682073600,8.603073486328125,-0.1894378662109375,0.8511962890625,0.476104736328125
1701290867692148500,8.6131484375,-0.1904449462890625,0.8626708984375,0.4220123291015625
1701290867702223600,8.6232236328125,-0.1354827880859375,0.8758087158203125,0.377838134765625
1701290867712298500,8.633298583984375,0.0284576416015625,0.9008941650390625,0.4019927978515625
1701290867722373400,8.643373291015624,0.077728271484375,0.8491363525390625,0.4565277099609375
1701290867732448500,8.653448486328125,-0.1320037841796875,0.7333831787109375,0.5342864990234375
1701290867742523400,8.6635234375,-0.39581298828125,0.654205322265625,0.640655517578125
1701290867752598500,8.6735986328125,-0.3184967041015625,0.6719970703125,0.6823272705078125
1701290867762673700,8.683673583984374,0.054718017578125,0.7750701904296875,0.6235809326171875
1701290867772747500,8.69374755859375,0.163055419921875,0.8868560791015625,0.5123291015625
1701290867782822700,8.70382275390625,0.1413726806640625,0.8828125,0.4089508056640625
1701290867792897500,8.7138974609375,0.1151580810546875,0.8272857666015625,0.371917724609375
1701290867802972700,8.72397265625,0.0147552490234375,0.8109283447265625,0.3841552734375
1701290867813047300,8.73404736328125,-0.229644775390625,0.85302734375,0.4677886962890625
1701290867823122400,8.744122314453126,-0.4947509765625,0.9393310546875,0.6800537109375
1701290867833197600,8.754197509765625,-0.48455810546875,1.000152587890625,0.8846588134765625
1701290867843272400,8.7642724609375,-0.3338165283203125,1.00439453125,0.9676971435546875
1701290867853347600,8.77434765625,-0.3267669677734375,1.029205322265625,1.0208587646484375
1701290867863421400,8.78442138671875,-0.3258056640625,1.0752105712890625,1.014923095703125
1701290867873496600,8.79449658203125,-0.2723236083984375,1.156524658203125,0.901947021484375
1701290867883571700,8.80457177734375,-0.1940460205078125,1.2420806884765625,0.8065032958984375
1701290867893646600,8.814646484375,-0.0919647216796875,1.289886474609375,0.800750732421875
1701290867903721500,8.824721435546875,-0.0570068359375,1.386444091796875,0.799560546875
1701290867913796400,8.83479638671875,-0.1256561279296875,1.5713043212890625,0.8199920654296875
1701290867923871500,8.84487158203125,-0.2519073486328125,1.7208099365234375,0.8117218017578125
1701290867933946600,8.854946533203124,-0.3350982666015625,1.56768798828125,0.7186279296875
1701290867944021500,8.865021484375,-0.3236083984375,1.203643798828125,0.567596435546875
1701290867954096600,8.8750966796875,-0.2602996826171875,0.9636688232421875,0.410858154296875
1701290867964170500,8.88517041015625,-0.208953857421875,0.8714752197265625,0.3000335693359375
1701290867974245600,8.89524560546875,-0.2056732177734375,0.8478851318359375,0.299713134765625
1701290867984320500,8.905320556640625,-0.2231292724609375,0.8352203369140625,0.3688812255859375
1701290867994395400,8.9153955078125,-0.2437286376953125,0.8323516845703125,0.4636993408203125
1701290868004470500,8.925470458984375,-0.244842529296875,0.8277435302734375,0.5200042724609375
1701290868014545400,8.93554541015625,-0.2185821533203125,0.809967041015625,0.508331298828125
1701290868024620500,8.94562060546875,-0.172760009765625,0.7684173583984375,0.437042236328125
1701290868034695700,8.95569580078125,-0.1396636962890625,0.7147369384765625,0.3581390380859375
1701290868044770600,8.9657705078125,-0.119964599609375,0.6694793701171875,0.2901458740234375
1701290868054845700,8.975845703125,-0.1102447509765625,0.6402740478515625,0.2239837646484375
1701290868064919600,8.98591943359375,-0.1094512939453125,0.6218719482421875,0.173583984375
1701290868074994700,8.99599462890625,-0.109161376953125,0.6125335693359375,0.14495849609375
1701290868085069300,9.0060693359375,-0.1173095703125,0.6119842529296875,0.1328887939453125
1701290868095144400,9.01614453125,-0.1281890869140625,0.611114501953125,0.1312713623046875
1701290868105219600,9.026219482421874,-0.137298583984375,0.606475830078125,0.136749267578125
1701290868115294500,9.03629443359375,-0.1395263671875,0.594085693359375,0.1386260986328125
1701290868125369600,9.04636962890625,-0.1315765380859375,0.57904052734375,0.1329193115234375
1701290868135444500,9.056444580078125,-0.1280517578125,0.5646820068359375,0.1251373291015625
1701290868145519600,9.06651953125,-0.1275634765625,0.55242919921875,0.11590576171875
1701290868155593500,9.076593505859375,-0.139801025390625,0.538909912109375,0.1125946044921875
1701290868165668600,9.086668701171876,-0.139495849609375,0.536590576171875,0.1308135986328125
1701290868175743500,9.096743408203125,-0.11431884765625,0.5492401123046875,0.1680450439453125
1701290868185818400,9.106818359375,-0.075897216796875,0.576171875,0.240966796875
1701290868195893500,9.1168935546875,-0.0565338134765625,0.6140899658203125,0.32623291015625
1701290868205968600,9.12696875,-0.0785064697265625,0.643157958984375,0.391204833984375
1701290868216043500,9.13704345703125,-0.11773681640625,0.6603240966796875,0.450927734375
1701290868226118700,9.14711865234375,-0.1407318115234375,0.6730499267578125,0.5528717041015625
1701290868236193500,9.157193603515625,-0.15985107421875,0.670196533203125,0.6938323974609375
1701290868246268000,9.167267822265625,-0.2134857177734375,0.64215087890625,0.7950897216796875
1701290868256342500,9.177342529296874,-0.2760772705078125,0.6068115234375,0.8471527099609375
1701290868266417700,9.187417724609375,-0.296722412109375,0.591766357421875,0.8562469482421875
1701290868276492800,9.197492919921874,-0.30462646484375,0.6060943603515625,0.81927490234375
1701290868286567700,9.207567626953125,-0.3118133544921875,0.6461639404296875,0.7498626708984375
1701290868296642800,9.217642822265624,-0.3037872314453125,0.702484130859375,0.6838836669921875
1701290868306718000,9.227718017578125,-0.2862396240234375,0.7694091796875,0.651336669921875
1701290868316792800,9.237792724609376,-0.281646728515625,0.830596923828125,0.6424102783203125
1701290868326867700,9.24786767578125,-0.3089752197265625,0.88690185546875,0.63385009765625
1701290868336942600,9.257942626953126,-0.3597564697265625,0.9318389892578125,0.6000518798828125
1701290868347016700,9.2680166015625,-0.3790130615234375,0.969940185546875,0.5471954345703125
1701290868357091600,9.278091552734375,-0.394927978515625,0.993133544921875,0.507965087890625
1701290868367166700,9.288166748046875,-0.4090576171875,1.0164794921875,0.4756317138671875
1701290868377241900,9.298241943359375,-0.4428863525390625,1.1092376708984375,0.4955902099609375
1701290868387316700,9.308316650390625,-0.4467315673828125,1.3194427490234375,0.6251373291015625
1701290868397392000,9.318391845703125,-0.498138427734375,1.540069580078125,0.803955078125
1701290868407466800,9.328466796875,-0.70001220703125,1.70855712890625,0.9905242919921875
1701290868417541600,9.338541748046875,-0.7119598388671875,1.544769287109375,1.16717529296875
1701290868427616800,9.34861669921875,-0.2471466064453125,1.1452789306640625,1.1558380126953125
1701290868437690600,9.358690673828125,0.3836517333984375,0.89691162109375,0.9189605712890625
1701290868447765800,9.368765869140624,0.6155548095703125,0.8464202880859375,0.595458984375
1701290868457840600,9.378840576171875,0.4548492431640625,0.882415771484375,0.3538818359375
1701290868467915800,9.388915771484376,0.2613372802734375,0.901092529296875,0.2008209228515625
1701290868477991000,9.398990966796875,-0.0058441162109375,0.998687744140625,0.0582733154296875
1701290868488065800,9.409065673828126,-0.680084228515625,1.237579345703125,-0.0732421875
1701290868498141000,9.419140869140625,-0.4931793212890625,1.304901123046875,0.111328125
1701290868508215600,9.429215576171876,0.191741943359375,1.1870880126953125,0.281158447265625
1701290868518290700,9.439290771484375,0.491119384765625,1.00494384765625,0.2811279296875
1701290868528365800,9.44936572265625,0.4761199951171875,0.914581298828125,0.2844390869140625
1701290868538439700,9.459439697265625,0.3939361572265625,0.949493408203125,0.3627777099609375
1701290868548514800,9.469514892578125,0.3129119873046875,1.0552520751953125,0.5355987548828125
1701290868558589700,9.479589599609374,0.25555419921875,1.1558380126953125,0.7456512451171875
1701290868568664800,9.489664794921875,0.2792205810546875,1.157196044921875,0.81195068359375
1701290868578739700,9.49973974609375,0.2032012939453125,1.074249267578125,0.75830078125
1701290868588814800,9.50981494140625,0.0278472900390625,1.0135498046875,0.681915283203125
1701290868598889700,9.5198896484375,-0.22198486328125,0.98046875,0.5767364501953125
1701290868608964600,9.529964599609375,-0.3126220703125,0.964080810546875,0.4238128662109375
1701290868619039700,9.540039794921874,-0.1519622802734375,0.9412384033203125,0.32818603515625
1701290868629113600,9.550113525390625,0.0322418212890625,0.8968963623046875,0.3035125732421875
1701290868639188700,9.560188720703126,0.0997467041015625,0.876556396484375,0.3232574462890625
1701290868649263900,9.570263916015625,0.0731658935546875,0.86322021484375,0.36126708984375
1701290868659338800,9.5803388671875,0.019378662109375,0.8391876220703125,0.386749267578125
1701290868669414000,9.590413818359375,0.013885498046875,0.7969818115234375,0.4158935546875
1701290868679488800,9.60048876953125,0.075714111328125,0.76080322265625,0.459197998046875
1701290868689563600,9.610563720703125,0.1607666015625,0.74395751953125,0.5034332275390625
1701290868699638800,9.620638671875,0.1998443603515625,0.7650909423828125,0.598968505859375
1701290868709713700,9.630713623046875,0.176544189453125,0.8228912353515625,0.7053985595703125
1701290868719788800,9.640788818359376,0.08984375,0.851898193359375,0.7758331298828125
1701290868729862700,9.650862548828124,-0.051544189453125,0.813720703125,0.8107452392578125
1701290868739937800,9.660937744140625,-0.216705322265625,0.73004150390625,0.800537109375
1701290868750013000,9.671012939453124,-0.3037872314453125,0.6600799560546875,0.755218505859375
1701290868760087800,9.681087890625,-0.20379638671875,0.6382904052734375,0.645782470703125
1701290868770163000,9.691162841796874,-0.096221923828125,0.6497802734375,0.50128173828125
1701290868780237600,9.701237548828125,-0.1070098876953125,0.657928466796875,0.3759613037109375
1701290868790312700,9.711312744140624,-0.1485443115234375,0.6500091552734375,0.2626190185546875
1701290868800387800,9.721387939453125,-0.15594482421875,0.6338958740234375,0.1711883544921875
1701290868810462700,9.731462646484376,-0.152435302734375,0.6137542724609375,0.12091064453125
1701290868820536800,9.741536865234375,-0.1395111083984375,0.6290435791015625,0.152740478515625
1701290868830611700,9.75161181640625,-0.0569610595703125,0.7345123291015625,0.322265625
1701290868840686800,9.761686767578125,0.008758544921875,0.8047943115234375,0.4621124267578125
1701290868850761700,9.77176171875,-0.0042877197265625,0.761871337890625,0.481414794921875
1701290868860836900,9.7818369140625,-0.03302001953125,0.68701171875,0.45501708984375
1701290868870911700,9.791911865234376,0.008880615234375,0.640777587890625,0.41400146484375
1701290868880986600,9.801986572265625,0.071502685546875,0.6243743896484375,0.3925933837890625
1701290868891061800,9.812061767578125,0.067626953125,0.63134765625,0.39013671875
1701290868901137000,9.822136962890625,0.0326385498046875,0.648651123046875,0.407745361328125
1701290868911210800,9.832210693359375,-0.008087158203125,0.6916961669921875,0.4721221923828125
1701290868921286000,9.842285888671874,-0.0622711181640625,0.7619476318359375,0.5524444580078125
1701290868931360800,9.85236083984375,-0.1221160888671875,0.83453369140625,0.6014556884765625
1701290868941436000,9.862435791015624,-0.0702667236328125,0.885955810546875,0.588104248046875
1701290868951510800,9.8725107421875,0.01788330078125,0.9236297607421875,0.5159912109375
1701290868961585700,9.882585693359376,0.0323638916015625,0.9696807861328125,0.4334716796875
1701290868971660800,9.892660888671875,-0.01513671875,0.953338623046875,0.3860015869140625
1701290868981735700,9.902735595703126,-0.087890625,0.877227783203125,0.3941192626953125
1701290868991810800,9.912810791015625,-0.137451171875,0.829376220703125,0.465576171875
1701290869001885700,9.9228857421875,-0.0503997802734375,0.8763885498046875,0.5587005615234375
1701290869011959800,9.932959716796875,-0.044189453125,0.920074462890625,0.691925048828125
1701290869022034700,9.94303466796875,-0.12982177734375,0.8914031982421875,0.8474273681640625
1701290869032109800,9.95310986328125,-0.2198638916015625,0.8108673095703125,1.0049896240234375
1701290869042184700,9.963184814453125,-0.3456573486328125,0.7024383544921875,1.152496337890625
1701290869052259600,9.973259521484374,-0.36260986328125,0.6386260986328125,1.2387847900390625
1701290869062334700,9.983334716796875,-0.4120025634765625,0.6865386962890625,1.2311248779296875
1701290869072409900,9.993409912109374,-0.43585205078125,0.9033203125,1.0707550048828125
1701290869082484700,10.003484619140625,-0.30291748046875,1.15228271484375,0.8496856689453125
1701290869092558800,10.013558837890624,-0.20672607421875,1.3457183837890625,0.679443359375
1701290869102633700,10.0236337890625,-0.17315673828125,1.4606170654296875,0.53466796875
1701290869112708900,10.033708984375,-0.0986480712890625,1.484527587890625,0.4347991943359375
1701290869122783700,10.04378369140625,-0.0503387451171875,1.45538330078125,0.3986968994140625
1701290869132859000,10.05385888671875,-0.070709228515625,1.41558837890625,0.439056396484375
1701290869142933800,10.063933837890625,-0.09490966796875,1.3727569580078125,0.4994049072265625
1701290869153008600,10.074008544921876,-0.0963897705078125,1.293975830078125,0.557464599609375
1701290869163083800,10.084083740234375,-0.1050262451171875,1.1742095947265625,0.6211090087890625
1701290869173158700,10.09415869140625,-0.1744384765625,1.0876007080078125,0.693572998046875
1701290869183233800,10.10423388671875,-0.250823974609375,1.0566253662109375,0.7470703125
1701290869193307600,10.1143076171875,-0.3026885986328125,1.0547943115234375,0.728729248046875
1701290869203382800,10.1243828125,-0.2865753173828125,1.055511474609375,0.644744873046875
1701290869213458000,10.1344580078125,-0.2653045654296875,1.046539306640625,0.5515899658203125
1701290869223532800,10.14453271484375,-0.241455078125,1.01171875,0.47467041015625
1701290869233607700,10.154607666015625,-0.1903076171875,0.937530517578125,0.4323272705078125
1701290869243682800,10.164682861328124,-0.1558074951171875,0.8407135009765625,0.4257354736328125
1701290869253758000,10.174758056640625,-0.1476287841796875,0.7580108642578125,0.4500274658203125
1701290869263832800,10.184832763671874,-0.152069091796875,0.6917724609375,0.4944305419921875
1701290869273908000,10.194907958984375,-0.1537933349609375,0.64984130859375,0.526763916015625
1701290869283981800,10.20498193359375,-0.1331634521484375,0.649566650390625,0.5336456298828125
1701290869294057000,10.215056884765625,-0.0927276611328125,0.65643310546875,0.52020263671875
1701290869304132000,10.225132080078126,-0.0709381103515625,0.66131591796875,0.4816741943359375
1701290869314206700,10.235206787109375,-0.0516204833984375,0.6758270263671875,0.4629364013671875
1701290869324281900,10.24528173828125,-0.0101318359375,0.620330810546875,0.472381591796875
1701290869334356700,10.255356689453125,0.04052734375,0.5407562255859375,0.420989990234375
1701290869344431900,10.265431884765626,0.07452392578125,0.48980712890625,0.3293304443359375
1701290869354507000,10.275507080078125,0.037933349609375,0.468841552734375,0.234039306640625
1701290869364582000,10.285581787109376,-0.0204925537109375,0.461578369140625,0.1393585205078125
1701290869374657000,10.295656982421875,-0.06842041015625,0.45587158203125,0.0413360595703125
1701290869384731000,10.30573095703125,-0.140167236328125,0.4543609619140625,-0.0650634765625
1701290869394806000,10.315805908203124,-0.2069244384765625,0.4566497802734375,-0.14837646484375
1701290869404881000,10.325880859375,-0.2798614501953125,0.487640380859375,-0.18731689453125
1701290869414955800,10.335955810546874,-0.3318634033203125,0.556793212890625,-0.163299560546875
1701290869425031000,10.346031005859375,-0.3181304931640625,0.6216888427734375,-0.0914306640625
1701290869435105800,10.356105712890624,-0.2652740478515625,0.67633056640625,0.0202789306640625
1701290869445181000,10.366180908203125,-0.2147979736328125,0.7360076904296875,0.1598663330078125
1701290869455256000,10.376256103515624,-0.175689697265625,0.766693115234375,0.308349609375
1701290869465331000,10.3863310546875,-0.1100006103515625,0.7609710693359375,0.436614990234375
1701290869475405000,10.396405029296876,-0.026153564453125,0.7383575439453125,0.541351318359375
1701290869485480000,10.40647998046875,0.0594635009765625,0.701507568359375,0.6304779052734375
1701290869495554800,10.416554931640626,0.1411285400390625,0.6491241455078125,0.7235260009765625
1701290869505629700,10.426629638671875,0.1812286376953125,0.6166534423828125,0.8395843505859375
1701290869515704800,10.436704833984376,0.13372802734375,0.6251678466796875,0.977264404296875
1701290869525780000,10.446780029296875,-0.012359619140625,0.6494293212890625,1.1140899658203125
1701290869535854800,10.456854736328125,-0.223419189453125,0.665069580078125,1.1689910888671875
1701290869545930000,10.466929931640625,-0.419281005859375,0.691925048828125,1.104461669921875
1701290869556004900,10.4770048828125,-0.5273590087890625,0.7190093994140625,1.005462646484375
1701290869566079000,10.487078857421874,-0.4947509765625,0.7494354248046875,0.92510986328125
1701290869576154000,10.497154052734375,-0.37115478515625,0.740692138671875,0.847381591796875
1701290869586228700,10.507228759765624,-0.2420501708984375,0.716278076171875,0.7640228271484375
1701290869596304000,10.517303955078125,-0.147308349609375,0.735015869140625,0.700592041015625
1701290869606378800,10.527378662109374,-0.1136322021484375,0.7677001953125,0.6581573486328125
1701290869616454000,10.537453857421875,-0.1124725341796875,0.7808837890625,0.5948486328125
1701290869626529000,10.547529052734374,-0.1330718994140625,0.7933807373046875,0.53143310546875
1701290869636604000,10.55760400390625,-0.1760101318359375,0.791259765625,0.4807281494140625
1701290869646679000,10.567678955078126,-0.2164306640625,0.7625274658203125,0.4381866455078125
1701290869656753000,10.5777529296875,-0.224884033203125,0.7384033203125,0.424652099609375
1701290869666828000,10.587828125,-0.2075042724609375,0.7556610107421875,0.4300537109375
1701290869676902700,10.597902587890625,-0.22833251953125,0.8585968017578125,0.4519805908203125
1701290869686977800,10.607977783203125,-0.326385498046875,1.064208984375,0.5116424560546875
1701290869697053000,10.618052978515625,-0.628448486328125,1.3024749755859375,0.61419677734375
1701290869707127800,10.6281279296875,-0.888092041015625,1.47247314453125,0.8530120849609375
1701290869717203000,10.638202880859374,-0.6421051025390625,1.5037689208984375,1.2455291748046875
1701290869727278000,10.648278076171875,0.1273956298828125,1.345977783203125,1.4049530029296875
1701290869737353000,10.65835302734375,0.718048095703125,1.016510009765625,1.186737060546875
1701290869747427000,10.668427001953125,0.763214111328125,0.83056640625,0.8234710693359375
1701290869757502000,10.678501953125,0.473419189453125,0.9320831298828125,0.6081390380859375
1701290869767576800,10.688576904296875,-0.0694427490234375,1.1317596435546875,0.444305419921875
1701290869777651700,10.698651611328126,-0.5677337646484375,1.2265777587890625,0.34014892578125
1701290869787726800,10.708726806640625,-0.32586669921875,1.2006072998046875,0.455902099609375
1701290869797802000,10.718802001953126,0.1072235107421875,1.130340576171875,0.447479248046875
1701290869807876900,10.728876953125,0.1562652587890625,1.1158599853515625,0.3841094970703125
1701290869817952000,10.738951904296876,-0.0051422119140625,1.110137939453125,0.3159637451171875
1701290869828027000,10.74902685546875,0.01177978515625,1.093475341796875,0.2521514892578125
1701290869838101800,10.759101806640626,0.229888916015625,1.1036224365234375,0.285400390625
1701290869848175900,10.76917578125,0.3760223388671875,1.1592559814453125,0.3321685791015625
1701290869858250800,10.779250732421875,0.4202117919921875,1.2283477783203125,0.3522491455078125
1701290869868326000,10.789325927734374,0.4087982177734375,1.240447998046875,0.3499603271484375
1701290869878400800,10.79940087890625,0.346038818359375,1.1585235595703125,0.3511962890625
1701290869888476000,10.809475830078124,0.2506866455078125,1.0423736572265625,0.3636932373046875
1701290869898551000,10.819551025390625,0.1421966552734375,0.966583251953125,0.40472412109375
1701290869908626000,10.8296259765625,0.0598907470703125,0.9166412353515625,0.459808349609375
1701290869918701000,10.839701171875,0.0324249267578125,0.882110595703125,0.4900054931640625
1701290869928775700,10.849775634765624,0.04010009765625,0.8796539306640625,0.5053863525390625
1701290869938850000,10.85985009765625,0.0729522705078125,0.892181396484375,0.5115509033203125
1701290869948924700,10.869924560546876,0.0963592529296875,0.8918609619140625,0.5037689208984375
1701290869958999800,10.879999755859375,0.0828857421875,0.86260986328125,0.463592529296875
1701290869969075000,10.890074951171876,0.0436553955078125,0.8241729736328125,0.406097412109375
1701290869979149800,10.90014990234375,0.004669189453125,0.79730224609375,0.3648223876953125
1701290869989225000,10.910224853515626,-0.004913330078125,0.7865753173828125,0.35821533203125
1701290869999299800,10.9202998046875,0.0174407958984375,0.792724609375,0.3914794921875
1701290870009375000,10.930375,0.0240325927734375,0.799346923828125,0.4400482177734375
1701290870019449900,10.940449951171875,0.00640869140625,0.79620361328125,0.479522705078125
1701290870029524000,10.95052392578125,-0.0305023193359375,0.773193359375,0.5026397705078125
1701290870039598800,10.960598876953124,-0.083099365234375,0.72918701171875,0.5237579345703125
1701290870049673700,10.970673828125,-0.1215667724609375,0.68743896484375,0.54302978515625
1701290870059748900,10.980748779296874,-0.1190338134765625,0.665008544921875,0.556854248046875
1701290870069824000,10.990823974609375,-0.0637664794921875,0.674468994140625,0.5709075927734375
1701290870079899000,11.00089892578125,0.01373291015625,0.7037353515625,0.574676513671875
1701290870089974000,11.01097412109375,0.0681915283203125,0.7176666259765625,0.5748138427734375
1701290870100049000,11.021048828125,0.0796051025390625,0.70489501953125,0.567291259765625
1701290870110123800,11.031123779296875,0.0618896484375,0.677520751953125,0.5645904541015625
1701290870120198000,11.041197998046876,0.0160064697265625,0.645416259765625,0.569793701171875
1701290870130272800,11.051272705078125,-0.0656890869140625,0.637847900390625,0.5985870361328125
1701290870140348000,11.061347900390626,-0.135040283203125,0.676239013671875,0.6477813720703125
1701290870150422800,11.0714228515625,-0.1308441162109375,0.7204132080078125,0.6620635986328125
1701290870160498000,11.081497802734376,-0.0470733642578125,0.7346954345703125,0.5910797119140625
1701290870170573000,11.091572998046875,-0.023529052734375,0.736053466796875,0.4944610595703125
1701290870180648000,11.10164794921875,-0.05303955078125,0.7296600341796875,0.43402099609375
1701290870190722800,11.111722900390625,-0.0443115234375,0.7298736572265625,0.406524658203125
1701290870200797700,11.121797607421875,-0.0259552001953125,0.7302398681640625,0.3863372802734375
1701290870210871800,11.131871826171874,0.0124969482421875,0.7214202880859375,0.362152099609375
1701290870220946700,11.14194677734375,0.0673370361328125,0.717498779296875,0.344146728515625
1701290870231021800,11.152021728515624,0.0699462890625,0.7244110107421875,0.361968994140625
1701290870241096700,11.1620966796875,0.0058746337890625,0.7183837890625,0.3985137939453125
1701290870251171600,11.172171630859374,-0.0114898681640625,0.7166595458984375,0.431915283203125
1701290870261246700,11.182246826171875,0.06671142578125,0.75628662109375,0.4419403076171875
1701290870271321600,11.192321533203126,0.1143035888671875,0.80548095703125,0.4353485107421875
1701290870281396700,11.202396728515625,0.076751708984375,0.82025146484375,0.4189300537109375
1701290870291471600,11.2124716796875,0.0280303955078125,0.838653564453125,0.4339752197265625
1701290870301545700,11.222545654296875,0.051116943359375,0.9144134521484375,0.468109130859375
1701290870311620600,11.23262060546875,0.1204681396484375,0.9766387939453125,0.4835205078125
1701290870321695500,11.242695556640625,0.07196044921875,0.9229888916015625,0.4467315673828125
1701290870331770600,11.2527705078125,-0.0449676513671875,0.7803192138671875,0.4447784423828125
1701290870341845500,11.262845458984375,-0.0861053466796875,0.681488037109375,0.469146728515625
1701290870351920600,11.272920654296875,-0.0601654052734375,0.7101287841796875,0.507659912109375
1701290870361995800,11.282995849609375,-0.055419921875,0.8404083251953125,0.604278564453125
1701290870372070700,11.293070556640625,-0.115142822265625,0.9355316162109375,0.7361602783203125
1701290870382145500,11.3031455078125,-0.154541015625,0.9273529052734375,0.856658935546875
1701290870392219600,11.3132197265625,-0.235809326171875,0.8150177001953125,0.9324188232421875
1701290870402294500,11.32329443359375,-0.2052001953125,0.7106170654296875,0.9660797119140625
1701290870412369700,11.33336962890625,-0.1939849853515625,0.7153167724609375,0.95855712890625
1701290870422444500,11.343444580078126,-0.2666778564453125,0.7972869873046875,0.95013427734375
1701290870432519700,11.353519775390625,-0.28961181640625,0.8982086181640625,0.9481658935546875
1701290870442594600,11.363594482421876,-0.2225341796875,1.0189971923828125,0.930908203125
1701290870452669700,11.373669677734375,-0.2155914306640625,1.1464996337890625,0.8314361572265625
1701290870462744800,11.383744873046876,-0.20294189453125,1.2233123779296875,0.640350341796875
1701290870472819500,11.3938193359375,-0.116302490234375,1.2328643798828125,0.43804931640625
1701290870482893800,11.403893798828125,-0.0384521484375,1.233154296875,0.3359832763671875
1701290870492968400,11.413968505859375,-0.059173583984375,1.3386077880859375,0.3380279541015625
1701290870503043600,11.424043701171875,-0.1117095947265625,1.5696868896484375,0.4001312255859375
1701290870513118700,11.43411865234375,-0.152740478515625,1.7906646728515625,0.42828369140625
1701290870523193600,11.444193603515625,-0.16314697265625,1.8706207275390625,0.3564605712890625
1701290870533268700,11.454268798828124,-0.1100006103515625,1.622314453125,0.1888275146484375
1701290870543343600,11.464343505859375,-0.09918212890625,1.1739654541015625,0.149139404296875
1701290870553418800,11.474418701171874,-0.1483917236328125,0.9311370849609375,0.262969970703125
1701290870563493600,11.48449365234375,-0.155364990234375,0.918487548828125,0.3725128173828125
1701290870573567700,11.494567626953126,-0.1151580810546875,1.0182037353515625,0.4775238037109375
1701290870583642600,11.504642578125,-0.11480712890625,1.145660400390625,0.589447021484375
1701290870593717500,11.514717529296876,-0.1658782958984375,1.23406982421875,0.70159912109375
1701290870603792600,11.524792724609375,-0.2201080322265625,1.21893310546875,0.76898193359375
1701290870613867500,11.534867431640626,-0.2506561279296875,1.099212646484375,0.7967681884765625
1701290870623942700,11.544942626953125,-0.2409210205078125,0.9412841796875,0.7653961181640625
1701290870634017800,11.555017822265626,-0.192962646484375,0.831634521484375,0.6944580078125
1701290870644092700,11.5650927734375,-0.1579437255859375,0.784332275390625,0.6287841796875
1701290870654167600,11.57516748046875,-0.1502227783203125,0.76995849609375,0.5822296142578125
1701290870664241700,11.58524169921875,-0.1515655517578125,0.777862548828125,0.5238189697265625
1701290870674316500,11.595316650390625,-0.15020751953125,0.7866058349609375,0.4513702392578125
1701290870684391700,11.6053916015625,-0.13128662109375,0.779541015625,0.36358642578125
1701290870694466600,11.615466552734375,-0.1004486083984375,0.74920654296875,0.26080322265625
1701290870704541700,11.625541748046874,-0.0631561279296875,0.6974639892578125,0.16583251953125
1701290870714616600,11.635616455078125,-0.0456390380859375,0.6324310302734375,0.0968475341796875
1701290870724691700,11.645691650390624,-0.0487213134765625,0.5621490478515625,0.04461669921875
1701290870734766800,11.655766845703125,-0.0528717041015625,0.5061492919921875,0.008056640625
1701290870744841500,11.665841552734374,-0.0527801513671875,0.4747467041015625,-0.00787353515625
1701290870754916600,11.67591650390625,-0.033477783203125,0.480560302734375,0.0168609619140625
1701290870764990500,11.685990478515626,-0.0086517333984375,0.49481201171875,0.087799072265625
1701290870775065600,11.696065673828125,0.005096435546875,0.492706298828125,0.1700286865234375
1701290870785140500,11.706140380859376,0.004974365234375,0.48114013671875,0.2305908203125
1701290870795215600,11.716215576171875,0.0087127685546875,0.4614105224609375,0.26556396484375
1701290870805290800,11.726290771484376,0.0189971923828125,0.4442138671875,0.2877349853515625
1701290870815365600,11.73636572265625,0.0273895263671875,0.434783935546875,0.302001953125
1701290870825440800,11.746440673828126,0.0431671142578125,0.4285125732421875,0.30743408203125
1701290870835515600,11.756515625,0.0655975341796875,0.4230804443359375,0.2991180419921875
1701290870845589800,11.76658984375,0.082122802734375,0.4249420166015625,0.2957611083984375
1701290870855664600,11.77666455078125,0.09210205078125,0.42620849609375,0.3256378173828125
1701290870865739500,11.786739501953125,0.1276092529296875,0.432037353515625,0.399749755859375
1701290870875814700,11.796814697265624,0.159423828125,0.452423095703125,0.5009307861328125
1701290870885889500,11.8068896484375,0.14959716796875,0.50006103515625,0.5969696044921875
1701290870895964700,11.816964599609374,0.09625244140625,0.5560455322265625,0.6965179443359375
1701290870906039800,11.827039794921875,0.0060577392578125,0.582763671875,0.792083740234375
1701290870916114700,11.83711474609375,-0.1109771728515625,0.59051513671875,0.879119873046875
1701290870926189600,11.847189453125,-0.249420166015625,0.617401123046875,0.9422149658203125
1701290870936263700,11.857263671875,-0.386932373046875,0.6796722412109375,0.9674224853515625
1701290870946338600,11.867338623046875,-0.4869842529296875,0.79205322265625,0.972198486328125
1701290870956413700,11.87741357421875,-0.5005035400390625,0.9011993408203125,0.9749298095703125
1701290870966488600,11.887488525390625,-0.441070556640625,0.9462432861328125,0.9710845947265625
1701290870976563700,11.897563720703126,-0.3657379150390625,0.915435791015625,0.875823974609375
1701290870986638600,11.907638671875,-0.3088531494140625,0.8474273681640625,0.7138824462890625
1701290870996713700,11.917713623046875,-0.2699127197265625,0.8010711669921875,0.5873870849609375
1701290871006788600,11.92778857421875,-0.24005126953125,0.79888916015625,0.503143310546875
1701290871016863500,11.937863525390625,-0.2301025390625,0.8475341796875,0.442291259765625
1701290871026937600,11.9479375,-0.3325958251953125,0.93304443359375,0.4119415283203125
1701290871037012500,11.958012451171875,-0.5134429931640625,1.1026153564453125,0.4267578125
1701290871047087600,11.968087646484374,-0.615692138671875,1.339691162109375,0.566619873046875
1701290871057162500,11.97816259765625,-0.8535308837890625,1.5538177490234375,0.799102783203125
1701290871067237600,11.988237548828126,-1.040130615234375,1.5965728759765625,1.180023193359375
1701290871077312800,11.998312744140625,-0.5572662353515625,1.29931640625,1.3155670166015625
1701290871087387600,12.0083876953125,0.2281494140625,0.95068359375,1.0121917724609375
1701290871097462500,12.018462646484375,0.649658203125,0.7976837158203125,0.7135009765625
1701290871107537700,12.02853759765625,0.597381591796875,0.8230743408203125,0.53863525390625
1701290871117612500,12.038612548828125,0.4203948974609375,0.9841766357421875,0.45794677734375
1701290871127686700,12.048686767578126,-0.050140380859375,1.3704071044921875,0.5232391357421875
1701290871137761500,12.058761474609375,-1.0084381103515625,1.773651123046875,0.694488525390625
1701290871147836700,12.068836669921875,-0.897979736328125,1.554595947265625,0.9058074951171875
1701290871157911600,12.07891162109375,-0.069854736328125,1.0388641357421875,0.71612548828125
1701290871167986700,12.088986572265625,0.2116241455078125,0.8055572509765625,0.5143585205078125
1701290871178061800,12.099061767578124,0.1043243408203125,0.6956024169921875,0.4066619873046875
1701290871188136700,12.10913671875,0.2216796875,0.70074462890625,0.2773284912109375
1701290871198211600,12.119211669921874,0.4066314697265625,0.7711639404296875,0.2692718505859375
1701290871208286500,12.129286376953125,0.4513092041015625,0.8424224853515625,0.2367095947265625
1701290871218360600,12.139360595703126,0.5074005126953125,1.009307861328125,0.23175048828125
1701290871228435500,12.149435546875,0.5441131591796875,1.28253173828125,0.33038330078125
1701290871238511400,12.159511474609374,0.492340087890625,1.449920654296875,0.44024658203125
1701290871248586500,12.16958642578125,0.3787078857421875,1.370880126953125,0.5036163330078125
1701290871258661600,12.17966162109375,0.23956298828125,1.131195068359375,0.4923095703125
1701290871268736300,12.189736328125,0.0515594482421875,0.9294891357421875,0.4790496826171875
1701290871278811400,12.199811279296876,-0.348236083984375,0.7852783203125,0.547119140625
1701290871288886300,12.20988623046875,-0.48504638671875,0.73394775390625,0.636199951171875
1701290871298961400,12.21996142578125,-0.23028564453125,0.7549896240234375,0.594085693359375
1701290871309035500,12.230035400390625,-0.0108642578125,0.794464111328125,0.5406494140625
1701290871319110400,12.2401103515625,0.02642822265625,0.809356689453125,0.502044677734375
1701290871329185500,12.250185546875,-0.002716064453125,0.796844482421875,0.4398040771484375
1701290871339260400,12.260260498046875,-0.023834228515625,0.78680419921875,0.3770751953125
1701290871349335600,12.27033544921875,-0.0283660888671875,0.786376953125,0.3287353515625
1701290871359410400,12.280410400390625,-0.05120849609375,0.791473388671875,0.301055908203125
1701290871369485300,12.2904853515625,-0.055572509765625,0.784393310546875,0.2685089111328125
1701290871379560400,12.300560546875,-0.01666259765625,0.7788238525390625,0.2863922119140625
1701290871389635300,12.31063525390625,-0.001983642578125,0.7880401611328125,0.3504638671875
1701290871399709400,12.32070947265625,-0.0552825927734375,0.7711639404296875,0.418365478515625
1701290871409784300,12.330784423828124,-0.1602630615234375,0.710174560546875,0.49786376953125
1701290871419859500,12.340859375,-0.26446533203125,0.6372528076171875,0.55731201171875
1701290871429934600,12.3509345703125,-0.264617919921875,0.58984375,0.554595947265625
1701290871440009500,12.361009521484375,-0.1943511962890625,0.572509765625,0.4978790283203125
1701290871450084400,12.37108447265625,-0.1430206298828125,0.5683135986328125,0.428070068359375
1701290871460159500,12.381159423828125,-0.1400299072265625,0.5637359619140625,0.3706512451171875
1701290871470234400,12.391234375,-0.1146697998046875,0.585845947265625,0.348175048828125
1701290871480309500,12.4013095703125,-0.0782318115234375,0.645050048828125,0.3596954345703125
1701290871490383400,12.41138330078125,-0.0463104248046875,0.7281341552734375,0.405029296875
1701290871500458500,12.42145849609375,-0.00921630859375,0.8078765869140625,0.4709320068359375
1701290871510533400,12.431533447265625,0.0838470458984375,0.848846435546875,0.5057373046875
1701290871520608500,12.4416083984375,0.1677093505859375,0.80816650390625,0.4792327880859375
1701290871530683400,12.451683349609375,0.1477508544921875,0.7264251708984375,0.4321746826171875
1701290871540758300,12.46175830078125,0.0683746337890625,0.6627197265625,0.4132080078125
1701290871550833400,12.47183349609375,-0.0098724365234375,0.6370086669921875,0.476165771484375
1701290871560908300,12.481908203125,-0.0772552490234375,0.691650390625,0.598236083984375
1701290871570983400,12.4919833984375,-0.059906005859375,0.827239990234375,0.6597442626953125
1701290871581057300,12.502057373046876,0.004364013671875,0.961090087890625,0.6128692626953125
1701290871591132400,12.51213232421875,0.034942626953125,1.0042266845703125,0.534698486328125
1701290871601207600,12.52220751953125,0.0472412109375,0.9469146728515625,0.4962005615234375
1701290871611282400,12.532282470703125,-0.012969970703125,0.8353424072265625,0.4876708984375
1701290871621357600,12.542357666015626,-0.18023681640625,0.72564697265625,0.5302581787109375
1701290871631432400,12.552432373046875,-0.44964599609375,0.6676483154296875,0.6690216064453125
1701290871641507300,12.56250732421875,-0.3973846435546875,0.700103759765625,0.8382568359375
1701290871651582500,12.57258251953125,-0.1664581298828125,0.836883544921875,0.9428253173828125
1701290871661657300,12.5826572265625,-0.2525634765625,0.9955291748046875,0.9970245361328125
1701290871671731500,12.5927314453125,-0.3616943359375,1.0872344970703125,1.002227783203125
1701290871681806300,12.602806396484375,-0.3359222412109375,1.0483245849609375,0.91412353515625
1701290871691881500,12.612881591796874,-0.2977447509765625,1.03955078125,0.843505859375
1701290871701956600,12.62295654296875,-0.3035125732421875,1.1156005859375,0.69818115234375
1701290871712031500,12.633031494140624,-0.2438812255859375,1.1745452880859375,0.51983642578125
1701290871722106400,12.6431064453125,-0.1205902099609375,1.252899169921875,0.435302734375
1701290871732181200,12.65318115234375,-0.06719970703125,1.4310760498046875,0.4521636962890625
1701290871742256400,12.66325634765625,-0.1392364501953125,1.6779327392578125,0.50079345703125
1701290871752331500,12.67333154296875,-0.1905670166015625,1.88531494140625,0.4895477294921875
1701290871762405400,12.6834052734375,-0.08172607421875,1.9523468017578125,0.4026336669921875
1701290871772480500,12.69348046875,0.053131103515625,1.7493438720703125,0.3023681640625
1701290871782555400,12.703555419921875,0.0546722412109375,1.2939300537109375,0.35711669921875
1701290871792630500,12.713630615234376,-0.0472412109375,0.9260406494140625,0.506591796875
1701290871802705400,12.723705322265625,-0.1385498046875,0.783782958984375,0.574920654296875
1701290871812780300,12.7337802734375,-0.1345977783203125,0.76373291015625,0.582611083984375
1701290871822855400,12.74385546875,-0.085174560546875,0.7883148193359375,0.5942840576171875
1701290871832930300,12.753930419921875,-0.0362701416015625,0.8241424560546875,0.6402587890625
1701290871843005400,12.76400537109375,-0.0151824951171875,0.8646392822265625,0.6932220458984375
1701290871853079300,12.774079345703125,-0.043792724609375,0.88519287109375,0.7278900146484375
1701290871863154400,12.784154541015624,-0.0955352783203125,0.8513641357421875,0.706939697265625
1701290871873229600,12.7942294921875,-0.131072998046875,0.78570556640625,0.624298095703125
1701290871883304400,12.804304443359374,-0.1522064208984375,0.7118988037109375,0.5250396728515625
1701290871893379300,12.81437939453125,-0.1435546875,0.6397857666015625,0.4402923583984375
1701290871903454500,12.824454345703124,-0.1058197021484375,0.58392333984375,0.3628692626953125
1701290871913529300,12.834529296875,-0.0664520263671875,0.5407257080078125,0.2919464111328125
1701290871923604500,12.8446044921875,-0.0314178466796875,0.5078887939453125,0.2266387939453125
1701290871933679400,12.854679443359375,-0.012115478515625,0.498870849609375,0.148712158203125
1701290871943753500,12.86475341796875,-0.0143890380859375,0.5049591064453125,0.0732421875
1701290871953828400,12.874828369140625,-0.0261993408203125,0.5089263916015625,0.0119171142578125
1701290871963903500,12.884903564453126,-0.0375213623046875,0.499603271484375,-0.0371856689453125
1701290871973978600,12.894978515625,-0.041229248046875,0.4784393310546875,-0.0715179443359375
1701290871984053200,12.90505322265625,-0.053253173828125,0.4609832763671875,-0.075439453125
1701290871994128400,12.91512841796875,-0.0657806396484375,0.4583282470703125,-0.0550079345703125
1701290872004203300,12.925203369140625,-0.0631561279296875,0.479644775390625,-0.024383544921875
1701290872014278400,12.9352783203125,-0.049957275390625,0.521636962890625,0.0157470703125
1701290872024353500,12.945353515625,-0.0256500244140625,0.5574798583984375,0.0648040771484375
1701290872034428400,12.955428466796874,-0.0179901123046875,0.5665740966796875,0.1181182861328125
1701290872044502500,12.96550244140625,-0.0310211181640625,0.567840576171875,0.181488037109375
1701290872054577400,12.975577392578124,-0.06622314453125,0.5817413330078125,0.27392578125
1701290872064652500,12.985652587890625,-0.1320037841796875,0.6051788330078125,0.3991241455078125
1701290872074727400,12.9957275390625,-0.221405029296875,0.618255615234375,0.52386474609375
1701290872084802300,13.00580224609375,-0.3083038330078125,0.650665283203125,0.6570587158203125
1701290872094877400,13.01587744140625,-0.36444091796875,0.7099609375,0.8179473876953125
1701290872104952300,13.025952392578125,-0.3519134521484375,0.7486419677734375,0.974365234375
1701290872115027500,13.03602734375,-0.281280517578125,0.7264404296875,1.0862579345703125
1701290872125101300,13.046101318359375,-0.209808349609375,0.6544036865234375,1.135955810546875
1701290872135176400,13.056176513671875,-0.176788330078125,0.5814666748046875,1.122161865234375
1701290872145251600,13.06625146484375,-0.1718597412109375,0.5375518798828125,1.0451812744140625
1701290872155326500,13.076326416015625,-0.2197418212890625,0.543670654296875,0.931396484375
1701290872165401300,13.0864013671875,-0.32574462890625,0.6016387939453125,0.8110504150390625
1701290872175476200,13.096476318359375,-0.447509765625,0.68048095703125,0.6826629638671875
1701290872185551400,13.10655126953125,-0.498016357421875,0.7509307861328125,0.5735321044921875
1701290872195626500,13.11662646484375,-0.4417266845703125,0.7802886962890625,0.4689483642578125
