time,seconds_elapsed,z,y,x
1701290859102018800,0.023018798828125,-0.23224282173216343,-0.15481354509294032,0.19583412226736543
1701290859112093700,0.03309375,-0.24164354115352032,-0.09455752157270908,0.18323358389139174
1701290859122168800,0.0431689453125,-0.33205095730945466,-0.04525193113386631,0.11541033998727798
1701290859132244000,0.053243896484375,-0.42591728174760934,-0.06088029289841652,0.08120528804659843
1701290859142318800,0.06331884765625,-0.3951327057749033,-0.11536825441122055,0.14588731131553648
1701290859152393700,0.073393798828125,-0.3546861290961504,-0.19723522123694417,0.2140788040101528
1701290859162468600,0.083468505859375,-0.3560365207917988,-0.1980231567442417,0.24438918659985065
1701290859172543700,0.093543701171875,-0.3113907388575375,-0.23275544742941856,0.25734511428475376
1701290859182619000,0.103618896484375,-0.2775238328300416,-0.25191139879822727,0.14374153145849705
1701290859192693800,0.11369384765625,-0.2562147950805724,-0.15309095908403395,0.09398819725215435
1701290859202769000,0.123768798828125,-0.23319851502180097,-0.1276531509667635,0.09063187256157397
1701290859212843800,0.13384375,-0.2833731433801353,-0.15685937170684336,0.12854396232664583
1701290859222918700,0.143918701171875,-0.3650198915839195,-0.1787836187452078,0.13759703735411166
1701290859232994300,0.153994384765625,-0.41821255258917805,-0.15038988343179224,0.12923194459080695
1701290859243068200,0.164068115234375,-0.4016261594474315,-0.20907120498120785,0.12635200524032114
1701290859253143300,0.174143310546875,-0.3673112173914909,-0.24738544580638408,0.17217559878230093
1701290859263218200,0.18421826171875,-0.35798867777287957,-0.3166203100740909,0.26074177098572254
1701290859273293300,0.194293212890625,-0.36256899130046366,-0.35544074685573573,0.3167816381156444
1701290859283368400,0.204368408203125,-0.3318494433879852,-0.37770167850255965,0.345919469794631
1701290859293443300,0.214443359375,-0.2666602012492716,-0.45570612468123434,0.4025567182958126
1701290859303518200,0.224518310546875,-0.24896014777719974,-0.4616080422013998,0.381742478325963
1701290859313593000,0.234593017578125,-0.3136532769620418,-0.42907881451845165,0.3154442520320415
1701290859323668200,0.244668212890625,-0.3709283849753439,-0.41112931632995603,0.2409668109357357
1701290859333743400,0.254743408203125,-0.37184754564687605,-0.5087357040792704,0.06475333493947982
1701290859343818200,0.264818359375,-0.3421135016404092,-0.5487006347209215,0.03757482063472271
1701290859353893400,0.274893310546875,-0.23705504431948066,-0.3198217364639044,0.05666589007377624
1701290859363968300,0.28496826171875,-0.14097951939925552,-0.30481647503376,-0.10635668043792247
1701290859374043100,0.295043212890625,-0.09251578661203384,-0.4286982907682657,-0.1577946067303419
1701290859384118300,0.3051181640625,-0.04381042708866298,-0.4498229118615389,-0.18506664453744887
1701290859394193200,0.315193115234375,-0.05470788787379861,-0.5977700783163309,-0.26706746687591076
1701290859404268300,0.325268310546875,-0.03525821425542235,-0.5566285051107406,-0.483467407310009
1701290859414342100,0.335342041015625,-0.16657047225162386,-0.5646452228277922,-0.34992227569520473
1701290859424417300,0.345417236328125,-0.2876232751052826,-0.6995955450654029,-0.009818214181065559
1701290859434492400,0.355492431640625,-0.32843583555221556,-1.151046350389719,0.3864595699757337
1701290859444567300,0.3655673828125,-0.2825876920908689,-3.3016794926792383,1.590436131042242
1701290859454642200,0.37564208984375,0.30099194830954074,-4.108773289433121,1.7839251514881849
1701290859464717000,0.385717041015625,0.5475560677956789,-2.094074804243445,0.7991828774988651
1701290859474792200,0.395792236328125,0.21261749928593635,-0.9683400052428245,0.31838030548393725
1701290859484867300,0.405867431640625,-0.18873214477505534,-0.23679040203392504,0.02615267838835716
1701290859494942200,0.415942138671875,-0.8172112861424684,0.5219540820926427,0.006559504646062851
1701290859505017300,0.426017333984375,-1.6853735918432473,0.8790770829468965,-0.381419822242856
1701290859515092500,0.436092529296875,-1.8849077376723289,0.7504612244278193,-0.9574486088722943
1701290859525167000,0.4461669921875,-1.428617091101408,0.35917467268705366,-1.1869558681607246
1701290859535242200,0.4562421875,-0.7588041053593159,0.00737082102894783,-1.0331757577687501
1701290859545317000,0.466317138671875,-0.44557519128918643,0.027712767311930654,-0.44827977407276626
1701290859555392300,0.476392333984375,-0.3451069843679666,0.31208851186335085,0.1911433341026306
1701290859565467400,0.48646728515625,-0.3363163596689701,0.27962533515393734,0.6221756207764149
1701290859575542300,0.496542236328125,-0.2919073091000318,-0.08700900588929653,0.756498751026392
1701290859585617400,0.506617431640625,-0.1542395445972681,-0.15690847154557705,1.0057160884350538
1701290859595691300,0.516691162109375,-0.20073533831238746,-0.14810732545256614,1.2142524558871983
1701290859605766400,0.526766357421875,-0.14049334331750868,-0.06703647744059563,1.2129139007598162
1701290859615841000,0.536841064453125,-0.24731822578907012,0.013684826481342316,1.153886542251706
1701290859625916200,0.546916259765625,-0.358420639449358,-0.022335750448703763,0.9883341610014438
1701290859635991300,0.5569912109375,-0.5381552753090858,-0.03550853575468063,0.760767514386773
1701290859646066200,0.567066162109375,-0.6697580406844615,-0.022968203133344647,0.6065329382255673
1701290859656141300,0.577141357421875,-0.5403156682133674,0.1305710842400789,0.6540078061059117
1701290859666216400,0.587216552734375,-0.3350210956940427,0.4037321918159723,0.7615045964896678
1701290859676291300,0.597291259765625,-0.34522447326779365,0.7147796701937913,0.6369941274628043
1701290859686366200,0.6073662109375,-0.42666473911404607,0.8070546337872743,0.3903627148941159
1701290859696441000,0.617441162109375,-0.551194753091596,0.7878150957882404,0.1753866697832942
1701290859706516200,0.62751611328125,-0.6188403388738631,0.7593143929690123,-0.005687105725705624
1701290859716591400,0.63759130859375,-0.5431774873852729,0.6946347077876329,-0.10525047276169061
1701290859726666200,0.647666259765625,-0.4077929384488612,0.6255512346893548,-0.15595073242932558
1701290859736741400,0.657741455078125,-0.29126141241192816,0.5405155746996403,-0.08264525772184134
1701290859746816300,0.667816162109375,-0.22670802049133926,0.1469984874278307,0.013011165003478526
1701290859756891100,0.67789111328125,-0.21531331424117087,-0.4409773421049118,0.14378332477360964
1701290859766966300,0.68796630859375,-0.3528244268774986,-0.6822586258172989,0.33891835886090993
1701290859777040100,0.6980400390625,-0.42532271338794375,-0.5459019439131021,0.5419295331507921
1701290859787115300,0.708115234375,-0.4694272280523553,-0.40860184367895125,0.5657581525057553
1701290859797190100,0.718190185546875,-0.41711482048034665,-0.3419114031970501,0.46017391774505373
1701290859807265300,0.728265380859375,-0.37329306828007097,-0.34535540617108346,0.41532910610735413
1701290859817340400,0.73834033203125,-0.37749599986262616,-0.5109790990918874,0.3184560010686517
1701290859827415300,0.748415283203125,-0.38211832590103145,-0.4163946895122528,0.3594321545794606
1701290859837490400,0.758490478515625,-0.3932628933150321,-0.13850713793635366,0.36400749967098234
1701290859847565000,0.76856494140625,-0.429236635428667,-0.0019639935493469237,0.4140785215243697
1701290859857640200,0.77864013671875,-0.39147900557294485,-0.042591772013902664,0.3652507777303457
1701290859867715300,0.78871533203125,-0.3087585637230426,0.4370826727539301,0.3957303794071078
1701290859877790200,0.798790283203125,-0.21429398113079368,0.5629395879536867,0.441901032821089
1701290859887865300,0.808865234375,-0.22524083401560782,0.8792097694158554,0.686216861923784
1701290859897940200,0.818940185546875,-0.3110883949100971,1.0576561190307139,0.7968715318165719
1701290859908015400,0.829015380859375,-0.484015688842535,1.062911555340886,0.7965876003086566
1701290859918090200,0.83909033203125,-0.4537468073070049,0.8680623524576425,0.6459336591131984
1701290859928165000,0.8491650390625,-0.5038859259605407,0.5815542720526456,0.4407249747790396
1701290859938240300,0.859240234375,-0.46824178112745285,0.6691033761680126,0.4184025222033262
1701290859948315100,0.869315185546875,-0.4323101976551115,0.5877133792042731,0.4493118205342442
1701290859958389200,0.87938916015625,-0.6833738205175847,0.8813292457878589,0.3872505011577159
1701290859968464400,0.88946435546875,-0.6109750123262405,0.833495481467247,0.33283253614120184
1701290859978539300,0.899539306640625,-0.5025182178039104,0.34999884806275366,0.23611118759810923
1701290859988614400,0.909614501953125,-0.32117724272608755,-0.15529285304248333,0.33210626769326623
1701290859998689300,0.919689208984375,-0.2537093881309032,-0.2590408122867346,0.1876543960083276
1701290860008764200,0.92976416015625,-0.23875618568155912,0.13239186992645263,-0.1309847796075046
1701290860018839300,0.93983935546875,-0.23590485137104986,0.8455629358798264,-0.5353686402652412
1701290860028914200,0.9499140625,-0.3976619319915771,1.3719436022430658,-0.9464792518947273
1701290860038989300,0.9599892578125,-0.5396317045371979,0.5928185933887958,-1.5213786691680549
1701290860049064200,0.970064208984375,-0.46943895502276717,-1.1030495044618844,-1.9779038551472126
1701290860059139300,0.980139404296875,-0.4212356998026371,-2.2872177877306936,-2.3453823919296264
1701290860069214500,0.99021435546875,-0.5069394683122634,-2.4626708007484672,-2.2197746291853484
1701290860079289000,1.0002890625,-0.5366389524620025,-1.585157898378372,-1.7419795684233306
1701290860089364200,1.0103642578125,-0.3886931011814624,-0.5507756874293088,-1.273786741004139
1701290860099439000,1.020439208984375,-0.19909158969335256,0.18153847041130064,-1.0879637251414358
1701290860109514200,1.03051416015625,0.025781068596988914,0.5269920762598514,-1.0358464382827282
1701290860119589400,1.04058935546875,0.29333997225165365,0.47728082762956614,-0.9181365891814232
1701290860129663200,1.050663330078125,0.5183703783869743,0.09810206231176853,-0.6061627897389232
1701290860139738400,1.06073828125,0.45130350580811496,-0.21628069796860216,0.0988775767289102
1701290860149813200,1.070813232421875,0.10176405541803688,-0.3776531631857157,1.1390163053780793
1701290860159888400,1.080888427734375,-0.30264081149511035,-0.4319616764783859,2.45006763202399
1701290860169963300,1.09096337890625,-0.5220915178019553,-0.5088718976795673,3.338347427602112
1701290860180038100,1.1010380859375,-0.6033517509061843,-0.7103951714992522,3.636573126068711
1701290860190113300,1.11111328125,-0.6115280430991202,-0.7948235132455825,3.528766539083421
1701290860200188200,1.121188232421875,-0.48091187760829923,-0.7208019992232322,2.8824606856569646
1701290860210263300,1.13126318359375,-0.3689198946971446,-0.3567997602492571,1.5962474476695059
1701290860220338400,1.14133837890625,-0.459570983415842,0.10319500153660774,0.5723319779381155
1701290860230413300,1.151413330078125,-0.7239899816095828,0.26298282791078087,-0.4692163252480328
1701290860240488200,1.16148828125,-0.8065523833535612,0.2911789948254824,-1.2429738157197832
1701290860250563000,1.17156298828125,-0.6436299122154713,0.4846469724833965,-1.3884772422842682
1701290860260638200,1.18163818359375,-0.5295979479093105,0.6539677663564681,-1.2335624287739395
1701290860270713300,1.19171337890625,-0.5624913327295333,0.5526525872170924,-0.8076527458108961
1701290860280787200,1.201787109375,-0.684874945795536,0.24522271481454372,-0.2484779172182083
1701290860290862300,1.2118623046875,-0.7051555903453379,-0.01081248591542244,0.04219268969371914
1701290860300937200,1.221937255859375,-0.45588973761983215,-0.10727379528284073,0.10761106441318988
1701290860311012400,1.232012451171875,-0.08304419391155242,-0.11709785468280315,0.11058584244027733
1701290860321087500,1.24208740234375,0.06940145300626754,-0.04009177189171314,0.007218260815739631
1701290860331162000,1.252162109375,-0.14635843595862388,0.0251619137853384,-0.16532003379911184
1701290860341237200,1.2622373046875,-0.42942251338958737,0.1359358261436224,-0.3247853502206504
1701290860351312100,1.27231201171875,-0.5429600452423096,0.16337269912362098,-0.33053207717910404
1701290860361387300,1.28238720703125,-0.4578853684164583,0.1172960076034069,-0.1823011253468692
1701290860371462400,1.29246240234375,-0.34628362693190573,0.11893909863531589,-0.012004179918020963
1701290860381537300,1.302537353515625,-0.2998492080152035,0.08255904074311256,0.07382482240647077
1701290860391612400,1.3126123046875,-0.3462111462175846,0.044430677878856656,0.08452683368474244
1701290860401687000,1.32268701171875,-0.4530325946230441,0.055426119145751,0.081735741661489
1701290860411762200,1.33276220703125,-0.46884961082749066,0.0032832594543695448,0.11248875345215201
1701290860421837300,1.34283740234375,-0.34916751180514694,-0.011968085691332817,0.22087986232712864
1701290860431912200,1.352912109375,-0.24871874023675916,0.013303133687376975,0.30712928202077744
1701290860441986300,1.362986328125,-0.20961057255491614,0.055660512423515315,0.383254928715527
1701290860452061200,1.373061279296875,-0.2502839437268674,0.09617606268525122,0.3478140513695776
1701290860462136300,1.38313623046875,-0.3230875333268195,0.04508592691719532,0.2224734151288867
1701290860472211500,1.39321142578125,-0.36275435780473053,-0.0597001432031393,0.1201030278481543
1701290860482286300,1.403286376953125,-0.32960955550670623,-0.10482640213072299,0.16228081223368643
1701290860492361200,1.413361328125,-0.28948563491106033,-0.0873801772892475,0.25467282633557914
1701290860502436000,1.42343603515625,-0.30413024633526803,-0.018434066835045813,0.27909575832188127
1701290860512511200,1.43351123046875,-0.3619629882313311,0.03147767280340195,0.2577677236109972
1701290860522586400,1.44358642578125,-0.4257565382279455,-0.013445757028460502,0.23131138610094784
1701290860532661200,1.4536611328125,-0.43743280136585233,-0.05740589478611946,0.27983254816383124
1701290860542736400,1.463736328125,-0.34600174125060434,-0.09319675461351871,0.3851470260724425
1701290860552811300,1.473811279296875,-0.19172785599231718,-0.07398352009952068,0.46578035944998264
1701290860562886100,1.48388623046875,-0.12882511735558508,-0.08646598505377769,0.4446304577849805
1701290860572961300,1.493961181640625,-0.1921849521100521,-0.02543605455160141,0.45377252627015113
1701290860583036200,1.5040361328125,-0.21256956849098205,0.025629531297087668,0.4895503804855048
1701290860593110300,1.5141103515625,-0.22787702773809432,-0.0432043509542942,0.5109935660086572
1701290860603185200,1.52418505859375,-0.19816110391020775,-0.16530337492525576,0.5618409790620208
1701290860613260300,1.53426025390625,-0.10180157441683113,-0.23994039049744603,0.5543219817340374
1701290860623335400,1.54433544921875,0.018108488142490387,-0.21490882509350775,0.38695919006094337
1701290860633410300,1.554410400390625,0.054013329738378524,-0.13726152178943157,0.0865605314694345
1701290860643485200,1.564485107421875,-0.01684117162041366,0.006391746863722801,-0.16856646837443112
1701290860653560000,1.57456005859375,-0.09059387863874435,0.017054595175385476,-0.27190058612078427
1701290860663635200,1.58463525390625,-0.12169972245506941,-0.053660278517007824,-0.22879940328001974
1701290860673710300,1.59471044921875,-0.08149499170817434,-0.046102995005249975,-0.11187281351089477
1701290860683785200,1.60478515625,-0.04401208714060485,0.02218260571360588,-0.037643648087233306
1701290860693860400,1.6148603515625,-0.10924239194206893,0.05187456414401531,-0.0683439067773521
1701290860703935200,1.624935302734375,-0.2507530225433409,0.035683892321586606,-0.12893500747084616
1701290860714010000,1.635010009765625,-0.3226911544203758,-0.023030746975541114,-0.1831624183513224
1701290860724085200,1.645085205078125,-0.3305308350700885,-0.05275251602232456,-0.12584186376109718
1701290860734160100,1.65516015625,-0.34817513976693154,-0.04360124131739139,0.05033171861618757
1701290860744235300,1.6652353515625,-0.35900866847038265,-0.02448445291519165,0.2501085871599614
1701290860754309000,1.67530908203125,-0.3683212712168693,-0.055255438753962514,0.3126666040122509
1701290860764384300,1.68538427734375,-0.4462660230975598,-0.06447860965132712,0.24114991241768002
1701290860774459400,1.69545947265625,-0.5478080697953701,-0.09763853645324706,0.11621157336756587
1701290860784534300,1.7055341796875,-0.6315443376243114,-0.1370715521752834,0.015350129345059393
1701290860794609400,1.715609375,-0.7339046419024468,-0.07437398072183132,-0.0016815233461558818
1701290860804684300,1.725684326171875,-0.7757740179259329,-0.02324702007472515,0.031216976040601727
1701290860814759200,1.73575927734375,-0.7568131507378071,0.022834347620606422,0.11733619348332285
1701290860824834300,1.745834228515625,-0.7766307808857411,0.0327735578328371,0.22009689525589346
1701290860834909200,1.7559091796875,-0.7861725892782211,-0.02775602193176746,0.35570012844428417
1701290860844984300,1.765984375,-0.7871312782425433,-0.120859837564826,0.4112696015834808
1701290860855059200,1.77605908203125,-0.8679203867036849,-0.1625216352522373,0.41385421124920246
1701290860865134300,1.78613427734375,-0.9267817409951239,-0.0800865131497383,0.46444867245480415
1701290860875209200,1.796209228515625,-0.855800836777687,-0.00869534763097763,0.5403991087131201
1701290860885284000,1.8062841796875,-0.6958487597525119,-0.04436696499288082,0.5064686359301209
1701290860895358200,1.816358154296875,-0.5974445726890116,-0.1493985343068838,0.45694238847792146
1701290860905433000,1.82643310546875,-0.6284720905721187,-0.2568815884262323,0.3376606138847768
1701290860915508200,1.83650830078125,-0.6907317820649593,-0.20856091737151145,0.23455095254406333
1701290860925583400,1.846583251953125,-0.7592740609586238,-0.014307926815748214,0.16132073502987623
1701290860935658200,1.856658203125,-0.8867255518734455,0.2524567577213049,-0.0053014674089849
1701290860945733400,1.8667333984375,-0.9667406802874058,0.1613409010350704,-0.3767204123802483
1701290860955808300,1.876808349609375,-0.7696166643399744,-0.03749532565772533,-0.7223284781381487
1701290860965883100,1.886883056640625,-0.6349463280875235,-0.021661796709895133,-0.8747808470577001
1701290860975958300,1.896958251953125,-0.620734262861684,0.06214870539903641,-0.6528202037565409
1701290860986033200,1.907033203125,-0.6094097357708961,0.035867432194948194,-0.3268009278267622
1701290860996108300,1.9171083984375,-0.6116005238134413,-0.07557926485836505,-0.13261618020161986
1701290861006183200,1.92718310546875,-0.6389174236755818,-0.15862930398881434,-0.005063566999882459
1701290861016258300,1.93725830078125,-0.6860860751509666,-0.23969079965054987,0.12740706725120543
1701290861026333400,1.94733349609375,-0.697975323452428,-0.19619126514196394,0.21746128605529666
1701290861036408000,1.957407958984375,-0.7037702734667808,-0.14264730648100377,0.26522578453198076
1701290861046482400,1.967482421875,-0.7301905898153781,-0.006195347508788108,0.2878929588921368
1701290861056557000,1.97755712890625,-0.6846528274774552,0.08283259698748588,0.25870310476496816
1701290861066632200,1.987632080078125,-0.5943360122144222,-0.0316711495488882,0.16979118786379693
1701290861076707300,1.997707275390625,-0.5223438851278275,-0.18024901512265204,0.09619856677800416
1701290861086782200,2.0077822265625,-0.5095920286476612,-0.14652911635041235,0.12975494555160402
1701290861096857300,2.017857421875,-0.47817397707700726,-0.040703181788325306,0.2170370692938566
1701290861106932200,2.02793212890625,-0.354856151900813,-0.027180267870426177,0.24691461342424154
1701290861117007400,2.03800732421875,-0.23321605067849158,-0.1834931116104126,0.3228242792807519
1701290861127082200,2.048082275390625,-0.041297567484900356,-0.28427754487395285,0.4100787843637168
1701290861137157000,2.0581572265625,0.22418993672318754,-0.1876934859097004,0.4632930726788938
1701290861147232300,2.068232177734375,0.15529109947681427,-0.10561726024746894,0.4043383410155773
1701290861157307100,2.07830712890625,-0.29025026260800657,-0.16891045950651168,0.308070070002228
1701290861167382300,2.08838232421875,-0.6593138035595416,-0.3035094840884209,0.12325067822411656
1701290861177457400,2.09845751953125,-0.506705732621625,-0.4314472972154617,-0.21409327092692254
1701290861187532300,2.1085322265625,0.031296397952362894,-0.35516192991435525,-0.3371997183747589
1701290861197606400,2.1186064453125,0.4034183035612106,-0.10955109256505965,-0.1720253766566515
1701290861207681300,2.128681396484375,0.4501636150579899,-0.0019856208592653273,0.10292042237892746
1701290861217756200,2.138756103515625,0.40708201370052993,-0.043504795205593104,0.4756663781702518
1701290861227831300,2.148831298828125,0.27066987528204917,-0.05941665008664131,0.8050660903185606
1701290861237906200,2.15890625,-0.07676642881631851,-0.04235854777991772,1.1466267803817987
1701290861247981000,2.16898095703125,-0.5224737220525741,-0.13032733861207962,1.4466083826050162
1701290861258056200,2.17905615234375,-0.846014698235318,-0.29883272444903847,1.6164890023179352
1701290861268131000,2.189131103515625,-1.035911831669137,-0.4856389061301946,1.560577291612327
1701290861278206200,2.199206298828125,-1.0971744749486445,-0.4650210655152797,1.3410028127953408
1701290861288281000,2.209281005859375,-1.03619715141654,-0.1782417669534683,1.0517182534143328
1701290861298356000,2.21935595703125,-1.02063126042895,-0.03475274895131588,0.7264207158878445
1701290861308431000,2.22943115234375,-1.103516537451744,-0.07794833207726479,0.550898437026143
1701290861318506200,2.23950634765625,-1.1447943042576312,-0.11213058766424655,0.6216515969023109
1701290861328581000,2.2495810546875,-0.9041034607190638,-0.18911679671108722,0.779559308618307
1701290861338655200,2.2596552734375,-0.6069944913227111,-0.2133914062678814,0.7512640652433037
1701290861348730000,2.269730224609375,-0.5735375543355942,-0.19429975230693816,0.6400728042557835
1701290861358805200,2.27980517578125,-0.6325684199750423,-0.36395197009146213,0.6804974613636732
1701290861368880000,2.289880126953125,-0.8745242419481277,-0.5361912817597388,0.8450523560091853
1701290861378955000,2.299955078125,-1.2003390813469885,-0.5775660791993141,1.0187851211056114
1701290861389030100,2.310030029296875,-1.6218050827741621,-0.6619897447705269,1.184230242589116
1701290861399105000,2.32010498046875,-2.0197966851115225,-0.9302321006447076,1.236599604512751
1701290861409180200,2.33018017578125,-2.0684872123919424,-1.242757834881544,1.1733885305792093
1701290861419255000,2.340255126953125,-1.870070380154997,-1.3470944076687097,1.1310510255873203
1701290861429330200,2.350330078125,-1.6038205132722854,-1.2613508916705847,1.2003145314276218
1701290861439405300,2.3604052734375,-1.4768389779567717,-1.155022268283367,1.2910405120134354
1701290861449480000,2.37047998046875,-1.5901766033232212,-1.2136205877244473,1.128298804269731
1701290861459555000,2.38055517578125,-1.7080477804660796,-1.432878255677223,0.7659265045851469
1701290861469630200,2.390630126953125,-1.9022610235333441,-1.6356284409433601,0.5208554732009768
1701290861479705000,2.400705078125,-2.1147873374044894,-1.7291279778957367,0.30285920348614453
1701290861489779200,2.410779296875,-1.881039371806383,-1.7158154918581245,-0.010056699112057685
1701290861499854000,2.42085400390625,-1.0870143154621124,-1.6816957801133394,-0.43009822069406506
1701290861509929200,2.43092919921875,-0.7679495348453521,-1.6523831763893364,-0.8300055935248732
1701290861520004000,2.441004150390625,-1.26973352009058,-1.5653975513756275,-0.783669958807528
1701290861530079200,2.451079345703125,-1.726726761972904,-1.4692337636500596,-0.5616974789381027
1701290861540154000,2.461154052734375,-1.3037632154643535,-1.3409201029479503,-0.6009767654031515
1701290861550229000,2.47122900390625,-0.46562779923677444,-1.2427005517363547,-0.8776008729144931
1701290861560304000,2.48130419921875,-0.37814938573744145,-1.20192196662426,-1.0768597089335321
1701290861570379000,2.49137890625,-0.8062205210506915,-1.3103449319422245,-1.1225170059978962
1701290861580454100,2.5014541015625,-0.6431868446230888,-1.54237849483788,-1.260951370958984
1701290861590529300,2.511529296875,-0.08494622814059256,-1.7038047360688446,-1.340185651193559
1701290861600604200,2.521604248046875,-0.08304944547540508,-1.6787141339540481,-1.1812187858134506
1701290861610679000,2.531678955078125,-0.5105851313382387,-1.3564753994762897,-0.7376783152222633
1701290861620754200,2.541754150390625,-0.28779282298590986,-0.6812210994631052,-0.301621770645678
1701290861630828000,2.551828125,1.3761492372393607,0.07205810499489307,-0.2850622655108571
1701290861640903200,2.561903076171875,2.1656091776251793,0.2954986115902662,-0.43484190808981654
1701290861650978000,2.57197802734375,1.6242600747108458,-0.006048047992587089,-0.43950493146479125
1701290861661053200,2.58205322265625,0.22732118395362047,-0.3925421047598123,0.1776826717659831
1701290861671128000,2.592128173828125,-1.4672680165350436,-0.6051157649040222,1.397749366889894
1701290861681203200,2.602203125,-2.5450591610997915,-0.6832154881507158,2.601064541438222
1701290861691278300,2.6122783203125,-1.7516197956889867,-0.6031283904790878,3.1173142744094133
1701290861701353000,2.62235302734375,0.42612997465021907,-0.3964291753262281,2.819083899767697
1701290861711428000,2.632427978515625,0.7262842300266027,-0.3107745066553354,2.6417136549517513
1701290861721503000,2.6425029296875,-0.21876308936886488,-0.5503647685408591,2.4572525750920176
1701290861731578000,2.652578125,-0.4662940811257809,-0.730890262517333,2.3964514849096537
1701290861741653200,2.6626533203125,-0.5963588963441551,-0.6526707122832537,2.596890178363025
1701290861751728000,2.67272802734375,-1.16894367999956,-0.6486836884737014,2.4603520024120806
1701290861761803300,2.68280322265625,-2.0807471206367016,-0.46253217130899427,2.042789438164234
1701290861771877000,2.692877197265625,-1.5502758239589631,0.6053630176633596,1.6132649257048963
1701290861781952300,2.7029521484375,-0.4135520134322345,1.844168315526843,1.002472284208238
1701290861792027100,2.713027099609375,-0.9667850308857857,2.6978046677470204,0.4241930883035063
1701290861802102000,2.72310205078125,-1.4362081307522951,2.8192496117234227,0.44400224288403983
1701290861812177200,2.73317724609375,-1.4881746109634637,2.1039596539199352,0.8669488382577896
1701290861822252000,2.743251953125,-1.0948375564336776,1.041527406528592,1.350551562385261
1701290861832327200,2.7533271484375,-0.33370559264868493,0.32808804502785205,1.7382175855413078
1701290861842402300,2.76340234375,-0.1842500674575567,0.8438952949285506,1.9459712781831622
1701290861852477200,2.773477294921875,-0.19590835654735564,2.254872099921107,2.0250378006353973
1701290861862552000,2.783552001953125,0.5005957983739674,4.2112493290454145,1.9449471958324311
1701290861872627000,2.793626953125,1.4036270267516373,6.2861681819200514,1.8278075478345155
1701290861882702000,2.8037021484375,1.3678329520538448,7.823866409987211,1.5722300277441739
1701290861892777200,2.813777099609375,0.5416913404807449,7.323951141223311,0.7004740814656019
1701290861902851000,2.82385107421875,0.41106940283626314,4.227293870395422,-0.34603082121461626
1701290861912926200,2.83392626953125,0.7567650007471441,1.2456214076191185,-0.4208011077776551
1701290861923001000,2.8440009765625,1.128498126234114,-0.48766485899984835,-0.24397008440494536
1701290861933076200,2.854076171875,1.3672349861606954,-0.7766811228334903,-0.3815782276749611
1701290861943151400,2.8641513671875,1.31633072835356,0.09960779069960117,-0.6592252484932541
1701290861953226000,2.87422607421875,1.1064978913500905,1.2945762849241493,-0.6019757133126259
1701290861963301000,2.884301025390625,0.7577046196848154,2.2559271619319916,-0.42799101928174493
1701290861973376000,2.8943759765625,0.28073738804906606,2.631252758952975,-0.3468479828163981
1701290861983451100,2.904451171875,-0.061733987118303774,2.173846844616532,-0.4182207358956337
1701290861993526300,2.9145263671875,-0.025772446899116036,1.117121868956089,-0.7417527250543237
1701290862003601200,2.92460107421875,0.2804793216347694,0.11766717900335788,-1.193410158866644
1701290862013676300,2.93467626953125,0.6043722530603408,-0.5313619619071484,-1.5217241216048598
1701290862023751000,2.9447509765625,0.8049696442067623,-0.9798018949776888,-1.709054034899175
1701290862033826000,2.954825927734375,0.8947942920386791,-1.333395552662015,-1.8613120502904057
1701290862043900000,2.96489990234375,0.9102706781119108,-1.6636755547761917,-2.090576732994616
1701290862053975000,2.97497509765625,0.9896385215982794,-1.9394711025089024,-2.390356090644002
1701290862064050200,2.98505029296875,1.148899693749845,-2.248275770395994,-2.6527514740556475
1701290862074125000,2.995125,1.484766556085646,-2.5393366917997597,-2.919314498540759
1701290862084200200,3.0052001953125,1.8297960913032292,-2.7917361663758755,-3.1615827474638816
1701290862094275300,3.015275390625,1.9206880761057137,-2.944673396202922,-3.325342984600365
1701290862104350200,3.02535009765625,1.7201859620273112,-2.946198998335004,-3.338144598506391
1701290862114425000,3.035425048828125,1.4214163659423589,-2.777414211034775,-3.292809957525134
1701290862124500000,3.0455,1.1970528992831706,-2.479347794783115,-3.3135154764235017
1701290862134575000,3.0555751953125,0.9646062255419791,-1.9940058257728814,-3.286109290842712
1701290862144650200,3.065650146484375,0.8616216518856584,-1.673630547079444,-3.3094296684145927
1701290862154725000,3.07572509765625,0.660801411768794,-1.6900614573985338,-3.5246140955790874
1701290862164800300,3.08580029296875,0.3468079430669546,-1.9383289467364548,-3.71339508446455
1701290862174874000,3.0958740234375,-0.07453355519771576,-2.240951711118221,-3.7299998900458213
1701290862184949200,3.10594921875,-0.45408641452491283,-2.5822727472066878,-3.565541441512108
1701290862195024100,3.116024169921875,-0.6749639387644827,-2.921912113818526,-3.1501135512053966
1701290862205099000,3.12609912109375,-0.9751369719065726,-3.132812872314453,-2.321096968717873
1701290862215174100,3.136174072265625,-1.1405834085643292,-3.0102006381243465,-0.8669006152018904
1701290862225249000,3.1462490234375,-1.426315828421712,-2.594866855841875,0.9751122758567332
1701290862235323600,3.15632373046875,-1.7972043197780847,-2.1642402273595334,2.608949449469149
1701290862245398800,3.166398681640625,-1.9615503939785062,-1.7442834614515303,4.239661476798355
1701290862255474000,3.176473876953125,-2.234893287862092,-1.8459692274689674,5.2850101951807735
1701290862265548800,3.186548828125,-2.374104628545046,-2.5272464410334825,5.174939462655782
1701290862275623700,3.196623779296875,-1.79275552367568,-3.4811242056816813,4.352283647371828
1701290862285698600,3.206698486328125,-0.6684333679519593,-4.188883183458447,3.224910433514416
1701290862295773700,3.216773681640625,0.4447160902418196,-4.119412172347307,2.2500059551894664
1701290862305847600,3.22684765625,1.0074345827907323,-3.32952027028501,1.3915262545913456
1701290862315922700,3.236922607421875,0.7026135046470909,-2.406884616118669,0.20504384916126728
1701290862325997800,3.246997802734375,0.04162847993969917,-1.5634095924288034,-0.8972519143238663
1701290862336072700,3.25707275390625,-0.8149287281632422,-0.8461702541232109,-1.717810465067625
1701290862346147800,3.26714794921875,-1.6929874278478323,-0.18705460348427294,-2.0879794099777937
1701290862356223000,3.277222900390625,-1.7631424757003784,0.35784663895368574,-1.7175123589038848
1701290862366297600,3.287297607421875,-1.356141052955389,0.7469494169145822,-0.9365937446311116
1701290862376372700,3.297372802734375,-1.265749418890476,0.9283867650389671,0.01883241850286722
1701290862386447600,3.307447509765625,-1.702791175112128,0.6006611235827207,0.6778238582402467
1701290862396522800,3.317522705078125,-2.6470021167486903,-0.08765256448984146,0.7883972795903682
1701290862406598000,3.327597900390625,-3.7775820176929233,-0.05973112286329269,0.6400821566060185
1701290862416672800,3.3376728515625,-4.400898625198006,1.6310592333316802,0.5330588289529085
1701290862426748000,3.347747802734375,-4.480010155835747,3.782888307407498,0.4941925072029233
1701290862436822500,3.357822509765625,-5.865113099381327,5.856047749394178,0.24779928730428216
1701290862446897000,3.36789697265625,-5.664074394208193,6.977625428715347,-0.2037567319601774
1701290862456971500,3.377971435546875,0.38672428532652553,5.70413986261487,-0.6946610112726688
1701290862467046700,3.388046630859375,5.291019664728641,4.414212280279398,-0.8659817467913031
1701290862477121800,3.398121826171875,5.244426840379834,7.15595428943038,0.6557017505422235
1701290862487196700,3.40819677734375,-6.789727360144257,15.382165820789336,4.2325779482781885
1701290862497271800,3.418271728515625,-21.026982556819913,20.050484964084625,10.516437268733977
1701290862507347000,3.428346923828125,-1.03589210405536,8.050576732033491,4.253147858098149
1701290862517421800,3.438421875,7.461466345512867,-0.41516251736879345,-1.4453817634195087
1701290862527496700,3.44849658203125,4.2948301140517,-4.943799633729458,-1.5669997258752584
1701290862537571600,3.458571533203125,3.679803780508041,-7.840217825329304,-1.4064374079972504
1701290862547646700,3.468646728515625,6.389840737840533,-8.347211069655417,-0.48406800355166196
1701290862557721900,3.478721923828125,8.15829768656194,-7.415085702610016,0.7283139822885394
1701290862567796700,3.488796630859375,8.61239345343709,-4.074574667233229,1.2666937140032648
1701290862577870800,3.498870849609375,8.612330325073003,0.8764367975711822,1.5908707230672239
1701290862587945700,3.50894580078125,7.011554586324095,5.104689868387579,2.679870074866712
1701290862598020900,3.519020751953125,2.481373163130879,7.618396444368362,3.6185336115092035
1701290862608095700,3.529095703125,-3.709599199312925,7.316784902855754,3.8690681689962743
1701290862618170600,3.539170654296875,-6.582635930803418,3.9289737716436384,0.9173214734062551
1701290862628245800,3.549245849609375,-4.249478229674697,1.069862689653039,-2.167017583118379
1701290862638320600,3.559320556640625,-1.2812766583681106,-0.656662996789813,-2.9024446122825145
1701290862648395800,3.569395751953125,0.0161690445125103,-1.4856646739691495,-2.383035246236622
1701290862658471000,3.579470947265625,0.12706746003329752,-1.3953244778305292,-1.6311486651808023
1701290862668545800,3.5895458984375,0.2340759006445296,-1.0384662653923034,-0.5927881982505321
1701290862678621000,3.599620849609375,-0.162277889624238,-0.7963660665124654,0.796191586728394
1701290862688695600,3.609695556640625,-1.0438117180734872,-0.7692214544773102,1.6198443040952086
1701290862698770700,3.619770751953125,-1.718150072285533,-0.9065005119234323,1.6593837028011678
1701290862708845800,3.629845703125,-1.863016223859787,-1.151413430136442,1.226974282555282
1701290862718919700,3.639919677734375,-1.4726935487151145,-1.2804653419852257,0.7230576691955327
1701290862728994800,3.649994873046875,-0.7328139240562915,-1.2811053934544323,0.540706128835678
1701290862739069700,3.660069580078125,-0.33175124371051784,-1.2696283061504363,0.8625874281778931
1701290862749144800,3.670144775390625,-0.39884149716496464,-1.5546365033864975,1.1774217316180466
1701290862759219700,3.6802197265625,-0.8111503786683082,-2.2142606880694626,1.0198226474598049
1701290862769294800,3.690294921875,-1.327695879715681,-2.688243643197417,0.8319704638570546
1701290862779369700,3.70036962890625,-1.6576771911442278,-2.785576474702358,0.6625681291803717
1701290862789444600,3.710444580078125,-2.0658511647999287,-2.4353625225842,0.6025558512881398
1701290862799519700,3.720519775390625,-2.3381810822486875,-1.7219576478749512,0.8054229409322142
1701290862809595000,3.730594970703125,-2.173983038216829,-1.2742846075236796,1.0125649314165115
1701290862819669800,3.740669677734375,-1.7756605964899062,-1.4488181676089762,0.9000611265257
1701290862829745000,3.750744873046875,-1.4555004218518732,-2.024801946052909,0.4512430077925324
1701290862839818800,3.76081884765625,-1.4809166026592253,-2.3237229333072897,0.09135317257344722
1701290862849894000,3.770893798828125,-1.6411352216660975,-1.9600497801572083,0.2621101367294788
1701290862859968800,3.78096875,-1.253267538458109,-1.37243927680552,0.8074746127650141
1701290862870043600,3.791043701171875,-0.6130395436406135,-1.337121879708767,0.9985194549292326
1701290862880118800,3.801118896484375,-0.1849263592839241,-1.8519331043094396,0.6332151934459805
1701290862890193700,3.811193603515625,-0.777895759320259,-2.820295321384072,0.11369739858955144
1701290862900268800,3.821268798828125,-2.68126328279078,-3.7411966991037127,-0.15726006146222352
1701290862910343700,3.83134375,-2.3781267236679793,-3.3432758239150044,-0.4733040329530835
1701290862920418800,3.841418701171875,0.4629980352550745,-1.4681635040700434,-1.3998855021357535
1701290862930494000,3.851493896484375,2.0452070206999777,0.048885903722047805,-2.4704285752683877
1701290862940568600,3.861568603515625,2.3498580760389567,0.442079165866971,-3.125878689137101
1701290862950643700,3.871643798828125,1.2755290546268223,-0.2011351512849331,-3.211507931105792
1701290862960718800,3.88171875,-1.0056143816262484,-1.2967664884448051,-1.880121672439575
1701290862970792700,3.891792724609375,-2.90094180650413,-1.5051017803668976,0.2167149977326393
1701290862980867800,3.901867919921875,-1.8731793059557675,-0.5808832409232855,1.5033455843493342
1701290862990942700,3.911942626953125,1.1834160035967827,0.36466391775310036,1.6180486528500913
1701290863001017900,3.922017822265625,1.6454653598248958,0.504872014388442,1.690305203026533
1701290863011092700,3.9320927734375,-1.791627396428585,-0.36092063957154746,2.598716224746406
1701290863021167900,3.94216796875,-5.048531927835941,-1.5735311734706163,3.808542096363008
1701290863031242800,3.95224267578125,-3.2393595223665237,-2.19660345082581,4.0380616306111214
1701290863041317600,3.962317626953125,-2.177750281795859,-1.768221386399865,3.5978079266056415
1701290863051392800,3.972392822265625,-2.893489736932516,0.4656067564487457,2.6267273904830217
1701290863061467600,3.982467529296875,-1.9428899710416794,2.783778485369682,1.268045420873165
1701290863071542800,3.992542724609375,-0.20273367252275346,3.4056139144062993,0.07357084764540195
1701290863081618000,4.002617919921875,0.5918092702157796,2.607942025992274,-0.28347762666791676
1701290863091691800,4.01269189453125,0.935272432899475,1.3377882346630097,-0.18962591527700423
1701290863101767000,4.022766845703125,1.8937386943817138,0.6590741495847702,0.825000332583487
1701290863111841800,4.032841796875,2.42512345264256,1.043739237359166,1.9753496406197546
1701290863121916700,4.042916748046875,1.7842847785808145,2.9746494322717187,3.130423931351304
1701290863131991800,4.05299169921875,1.5266437500894068,6.212701963692903,4.213530425719917
1701290863142066700,4.063066650390625,1.8538579348921775,9.26603797918856,4.572319898481667
1701290863152141800,4.073141845703125,1.0359814628392456,10.773517010080814,4.226759325127303
1701290863162216700,4.083216796875,0.06560907498598098,9.581112813386321,3.2883255055874585
1701290863172291800,4.093291748046875,-0.13759411474466324,5.405785861593484,1.148940902543068
1701290863182366700,4.10336669921875,-0.10139058246314525,1.6563754608958958,-0.30866029098033904
1701290863192441600,4.113441650390625,0.09175123198032378,-0.48174306773543357,-0.9445774368613957
1701290863202516700,4.123516845703125,0.4835398880243301,-0.9322861105650663,-1.4804215126186608
1701290863212591600,4.133591552734375,0.7052578086107969,-0.2559767485409975,-1.7334265518724918
1701290863222665700,4.143665771484375,0.5091214885264634,1.2766489985674618,-1.5557313128858803
1701290863232741000,4.1537412109375,0.09551379938423633,3.1747090632796287,-1.065942301338911
1701290863242816000,4.16381591796875,-0.6308098858699203,4.459107068538666,-0.5100198986709118
1701290863252891100,4.17389111328125,-1.2759043176800011,4.275844843074679,-0.0546504585981369
1701290863262966300,4.18396630859375,-1.2840280029028652,2.628789583709836,0.00858604203760624
1701290863273041000,4.194041015625,-0.584179652120173,0.8109440424412488,-0.24806933641731738
1701290863283116000,4.204115966796875,0.2603954417660832,-0.4392851512342691,-0.5606500157117843
1701290863293191000,4.21419091796875,0.8582268948808311,-1.2808838596582413,-0.8739549176275729
1701290863303266000,4.22426611328125,1.4194664009183644,-1.872740330016613,-1.2632739686876535
1701290863313341200,4.234341064453125,1.9852669312611222,-2.3526947607696056,-1.9240654435843227
1701290863323416000,4.244416015625,2.366118305966258,-2.781585943761468,-2.748149538105726
1701290863333491200,4.2544912109375,2.4854928734093904,-3.090349695116281,-3.8474645322144028
1701290863343565800,4.26456591796875,2.4827009046033024,-3.315630276620388,-4.856839143157005
1701290863353640200,4.27464013671875,2.430460429756343,-3.5093192035526033,-5.5952942879706615
1701290863363714800,4.28471484375,2.418006606374681,-3.7069326104521747,-6.044087272262573
1701290863373790000,4.2947900390625,2.370903494416177,-3.677819913214445,-6.221662099739909
1701290863383865000,4.304864990234375,2.2637679385602474,-3.508503210994601,-6.1735425042152405
1701290863393940000,4.31493994140625,2.174165993568301,-3.299412132269144,-5.985589490586519
1701290863404015000,4.32501513671875,2.000657831007987,-3.032882425531745,-5.610931417563557
1701290863414090200,4.33509033203125,1.6251462098956106,-2.739510304576158,-5.180560225147008
1701290863424165000,4.3451650390625,1.2649661595582962,-2.450713236451149,-4.634662372887134
1701290863434240000,4.355239990234375,1.0338406514182685,-2.223538219502568,-3.9627603059113023
1701290863444315000,4.36531494140625,0.8175428561843932,-2.200956969860196,-3.3795883695289493
1701290863454390000,4.37539013671875,0.7217787353008985,-2.3206226292043923,-2.8529060898706313
1701290863464465200,4.385465087890625,0.6626720279462636,-2.4778368056982756,-2.270129874807596
1701290863474539000,4.3955390625,0.5207729094840586,-2.648907073587179,-1.6050161527976392
1701290863484614100,4.4056142578125,0.04176189706102013,-2.6477579035520553,-0.677202219210565
1701290863494689000,4.41568896484375,-0.5685534823127091,-2.606707515761256,0.68316083535403
1701290863504764200,4.42576416015625,-1.0419090262573212,-2.586410577663779,2.3720924119397995
1701290863514839000,4.435839111328125,-1.602981285969168,-2.3675474619865415,4.128608747498691
1701290863524914000,4.445913818359375,-2.1741215699046847,-1.9158821371287107,5.9526797391533846
1701290863534989000,4.455989013671875,-3.1052550033032893,-1.1628601223021744,7.8465657330513
1701290863545064000,4.46606396484375,-4.800359131044149,-0.5684206497132778,9.386666346085072
1701290863555139000,4.47613916015625,-6.122323189109563,-0.886429783797264,9.374493093210457
1701290863565214200,4.486214111328125,-5.615361508965492,-1.6534066742181777,7.812605011260509
1701290863575289000,4.4962890625,-3.9997827533602712,-2.0455413672208786,5.3879246262103315
1701290863585364200,4.5063642578125,-2.675192438444495,-1.6935422852516173,2.721282573968172
1701290863595438800,4.51643896484375,-2.0192074870467183,-1.2558785977393387,0.019161212065815926
1701290863605513200,4.52651318359375,-1.8827391614615916,-0.8265630518555641,-2.001826728656888
1701290863615587800,4.536587890625,-1.9465677827715873,-0.42037294549345966,-3.0655630443841217
1701290863625663000,4.5466630859375,-1.491879895222187,-0.21819792976677416,-3.722392629912495
1701290863635738000,4.556738037109375,-0.5280068062603473,-0.2575444362491369,-4.008110144461691
1701290863645813000,4.56681298828125,0.12954115667045116,0.029749241575598714,-3.429475851508975
1701290863655888100,4.57688818359375,0.30614502022378143,1.0711918924301862,-2.65463977202028
1701290863665963000,4.586962890625,-0.4991033678591251,2.926024809834361,-1.6142910538822413
1701290863676038100,4.5970380859375,-1.3327005561351775,4.929872815185785,0.16938333771526812
1701290863686113000,4.607113037109375,-0.92172321549654,5.383300473541021,1.6881480249926446
1701290863696188000,4.61718798828125,0.15619703534059226,5.024445534327626,1.690601847885549
1701290863706263000,4.627262939453125,2.546476042160392,4.213615473654866,1.1860124498307705
1701290863716338200,4.637338134765625,3.2308810323566197,3.886316533178091,0.7681292753264307
1701290863726412000,4.647412109375,2.051015999239683,5.0457577869474886,0.84782240524441
1701290863736487200,4.657487060546875,-2.1758406487822533,8.44622206350565,2.514944008821249
1701290863746562000,4.66756201171875,-11.976800912708043,11.388405980980396,6.130688866394758
1701290863756637200,4.67763720703125,-12.614317895001172,8.854940811562537,8.030666747426986
1701290863766712000,4.687712158203125,-0.49052200199663637,2.892513585376739,4.871176880589127
1701290863776787000,4.697786865234375,2.8225474842250344,-1.6377251209616661,2.160140683086216
1701290863786862000,4.707862060546875,2.7072961341917514,-3.4596652380675077,1.167040622857213
1701290863796937000,4.71793701171875,4.095940111345053,-3.189659964174032,0.6690636286795139
1701290863807012000,4.72801220703125,5.2630462006539105,-2.3431173696070906,0.2912278024032712
1701290863817087000,4.7380869140625,6.138401632729172,-1.3552771296024322,-0.736671768528223
1701290863827162000,4.748162109375,7.538539063799381,0.0557224717438221,-1.8000208385035394
1701290863837237000,4.758237060546875,8.577727213725447,2.010025232681632,-2.1051389268323777
1701290863847311000,4.76831103515625,7.963934805890918,3.6740234435409307,-1.7699995019882917
1701290863857386200,4.77838623046875,5.452884297376871,3.5421500445306298,-1.0953843766614795
1701290863867460900,4.7884609375,2.711634455657005,2.1153058083206413,-0.517945723234117
1701290863877536000,4.798535888671875,-3.9446436344623566,0.5275713374525308,0.8295897062003612
1701290863887611100,4.808611083984375,-13.81467568104863,-0.5455781187862158,2.6932228929147124
1701290863897686000,4.81868603515625,-6.895484321123361,-0.6720061118721962,0.4534185982659459
1701290863907761200,4.82876123046875,0.9370166462182998,-0.9884399594634771,-0.5722288098245859
1701290863917836000,4.8388359375,1.799644698667526,-1.0179279197543858,-0.15972849740236997
1701290863927911200,4.8489111328125,0.9234066385388374,-1.3746499385923145,0.03787234227657318
1701290863937986000,4.858986083984375,-0.7376151868581772,-1.8242489785701035,0.22245821755975484
1701290863948061000,4.86906103515625,-2.799406262612343,-1.8082880238503216,0.22733196107596157
1701290863958136000,4.879135986328125,-3.288760974395275,-1.6180372546732424,-0.00037292496562004086
1701290863968210000,4.8892099609375,-2.155824281191826,-1.5393039096981287,-0.2471945994094014
1701290863978285000,4.89928515625,-0.9063222327470779,-1.6675065112411975,-0.4010319929465651
1701290863988360200,4.909360107421875,-0.0892892988462001,-1.9177233810812233,-0.37937194980233907
1701290863998435000,4.91943505859375,0.14868600212335586,-2.159905997547507,-0.19474954190105198
1701290864008510200,4.92951025390625,-0.20981533787939696,-2.3462860627710818,0.05311316602826118
1701290864018585000,4.939585205078125,-1.2710802585244179,-2.608009830531478,0.24568770197778939
1701290864028660000,4.949659912109375,-2.5319313839793205,-2.7851778307735917,-0.08844634521603584
1701290864038735000,4.959735107421875,-2.9963737728238105,-2.6401018358409405,-1.4548589090779422
1701290864048810000,4.96981005859375,-2.333483864343166,-2.0941958002746106,-2.530443191248178
1701290864058885000,4.979885009765625,-1.2994202178239822,-1.6052233658075332,-2.6032974150568244
1701290864068960000,4.9899599609375,-0.39720015969872474,-1.2686474784195423,-2.003161192131042
1701290864079035100,5.00003515625,-0.31812603846192355,-1.215105857846141,-1.1422872898727654
1701290864089109000,5.01010888671875,-1.3564566947758196,-1.4021534470677375,-0.18823153830915687
1701290864099184000,5.02018408203125,-2.0674059930264947,-1.6757722352832556,0.6202390997558832
1701290864109259000,5.030259033203125,-0.7262707860231399,-1.814514935541153,0.7623875168040394
1701290864119334000,5.040333984375,1.5816472599089144,-1.867427026039362,0.3769242643892765
1701290864129409000,5.050408935546875,2.603617148530483,-1.8721961401373146,0.02644552385509014
1701290864139484200,5.060484130859375,2.663326059561968,-2.168981868928671,-0.14573913501650093
1701290864149559000,5.07055908203125,1.8481991784781215,-2.7466087384045124,0.2833908251672983
1701290864159634200,5.08063427734375,-0.055388709744811054,-2.579410928034782,1.8299319926425814
1701290864169709000,5.090708984375,-1.9383160872548817,-1.3422627497285604,3.883106631220877
1701290864179784000,5.100783935546875,-1.8630705843955278,-0.38299803134500976,5.0969303403019905
1701290864189859000,5.110859130859375,-0.29148415178451687,-0.1668570341080427,5.064518601518869
1701290864199934000,5.120933837890625,-0.7431973709046841,0.14174597372710704,5.137219680592417
1701290864210008000,5.131008056640625,-3.3134587778002023,0.6593687486171722,5.609457253357768
1701290864220083000,5.1410830078125,-5.5945671427398915,1.0298574270009995,5.8459209076553575
1701290864230158000,5.151157958984375,-5.308682747191191,1.9398685773938893,5.5302732420057055
1701290864240233000,5.16123291015625,-3.081912706160545,3.4636253738701344,3.8144381686642763
1701290864250308000,5.17130810546875,-2.029847100613266,4.729084285381436,1.9314757198408246
1701290864260383000,5.181383056640625,-0.6171813196204602,5.0108355266481635,0.09476999527961015
1701290864270457900,5.191457763671875,1.1036954011499882,4.759596912544965,-1.0304334733232856
1701290864280533000,5.201532958984375,1.9965708539552987,5.009825472822785,-0.9565528290763496
1701290864290607900,5.21160791015625,2.1905159476056695,6.320572555825114,-0.3722352297902107
1701290864300683000,5.22168310546875,1.9750879209436476,8.119935514941812,-0.12050561729967593
1701290864310758100,5.231758056640625,1.3373428289830684,9.24677506031394,-0.8773188411027193
1701290864320832000,5.24183203125,1.291876378315687,8.333577096578479,-1.9234744919538498
1701290864330907100,5.2519072265625,1.971015556938201,5.016103822439908,-2.0595587866574525
1701290864340982000,5.26198193359375,2.1061445967435835,2.0204028343111275,-1.177771860229969
1701290864351057200,5.27205712890625,1.4814628383651376,0.5242635280787944,-0.2559451843589544
1701290864361132000,5.282132080078125,0.9616668110892176,0.5697434227496385,0.06559913811385631
1701290864371207000,5.29220703125,0.9301081820040941,1.59047704757452,0.4236871846079826
1701290864381282000,5.302281982421875,0.691651454193145,2.6288170562386513,1.4236831418305635
1701290864391357000,5.31235693359375,0.16433847541585564,2.9948055005937815,2.1743536250948905
1701290864401432000,5.32243212890625,0.08520926299095154,2.412130115556717,1.8665549193799496
1701290864411507000,5.3325068359375,0.5012994165986776,1.345969203031063,0.34994741013646125
1701290864421582000,5.34258203125,0.6757488055318593,0.35341362494230266,-1.2170324419945477
1701290864431657000,5.352656982421875,0.6160550920695066,-0.39874914270639417,-2.154117477273941
1701290864441731000,5.36273095703125,0.6739791655108333,-0.8420780163735151,-2.724133871746063
1701290864451806000,5.372805908203125,0.9522340890944003,-1.217537468907237,-3.118170598977804
1701290864461880800,5.382880859375,1.4918144287705422,-1.628015627852082,-3.541362693545222
1701290864471956000,5.3929560546875,2.023358907637745,-1.9499030646741389,-4.128441866499185
1701290864482031000,5.403031005859375,2.2831693891227243,-2.2678093229055403,-4.7902170917361975
1701290864492106000,5.41310595703125,2.3764415470600126,-2.6347633974224327,-5.421939708536863
1701290864502181000,5.42318115234375,2.4528251140385864,-2.9916420681267977,-5.992732348078489
1701290864512256000,5.433256103515625,2.5134955635786054,-3.376287282156944,-6.3625762988179915
1701290864522331000,5.443330810546875,2.436534488973021,-3.5935955696076154,-6.51938890877366
1701290864532406000,5.453406005859375,2.1486896070063115,-3.675913202810287,-6.500677194041013
1701290864542481000,5.46348095703125,1.769519609516859,-3.6694115658313033,-6.558744767606258
1701290864552556000,5.47355615234375,1.358646021513641,-3.3134768979787825,-6.47735243255496
1701290864562630000,5.4836298828125,0.8516009008698165,-2.8989900879144668,-6.008603286427259
1701290864572705000,5.493705078125,0.539227288454771,-2.7278894248872994,-5.290132945021987
1701290864582780200,5.5037802734375,0.6805915693879128,-2.7250498175472018,-4.282855014097691
1701290864592855000,5.51385498046875,0.8994833266377449,-2.606222947114706,-3.1508351434782145
1701290864602930200,5.52393017578125,0.9822498726516962,-2.298782553318143,-1.8918141560599206
1701290864613004800,5.5340048828125,0.7840501902967691,-1.505477627941966,-0.4127390896141529
1701290864623080000,5.544079833984375,-0.08423428047895432,-0.5329547840565443,1.689585072058439
1701290864633155000,5.554155029296875,-1.373862003085017,0.0808972450107336,4.63758936624974
1701290864643230000,5.56422998046875,-2.5810394060194493,-0.06125964760482311,7.031871982687711
1701290864653305000,5.57430517578125,-3.284550078701973,-0.8042682179391384,8.206997127801179
1701290864663380000,5.5843798828125,-3.0930987015634774,-2.0449200204521416,7.744131779015063
1701290864673455000,5.594455078125,-2.5598352899491785,-3.3167893835276363,6.651484426102042
1701290864683529000,5.604529052734375,-2.3453455670505763,-4.057517733970284,5.427735243073106
1701290864693604000,5.61460400390625,-2.258816453632712,-4.274540774738789,3.900988324870169
1701290864703679000,5.624678955078125,-1.9902076025336979,-3.8492946702510116,2.15362560210377
1701290864713753900,5.63475390625,-1.6086714604347943,-2.7580186056911944,0.7576470442786812
1701290864723829000,5.6448291015625,-1.513047770935297,-1.4074597367823123,-0.30420331157147884
1701290864733904100,5.654904052734375,-1.8680021955788135,-0.16805413493812082,-1.18274000403136
1701290864743979000,5.66497900390625,-2.419918285214901,0.836764712396264,-1.9037454168722032
1701290864754054100,5.67505419921875,-2.8233605541735884,1.5824907249957323,-2.3630717778772112
1701290864764129000,5.68512890625,-2.7087691293537617,1.68505152028203,-2.676496214519441
1701290864774204000,5.695203857421875,-2.3506968649506566,1.3670850562959909,-2.4912372622802854
1701290864784279000,5.705279052734375,-1.969666334286332,1.0591939961224794,-1.7398463557869195
1701290864794353000,5.715352783203125,-1.2994547046154736,1.990215201318264,-0.026899989624321458
1701290864804428000,5.725427978515625,-0.999590883553028,4.204906097498536,2.2688810437902807
1701290864814503000,5.7355029296875,-3.301841405242681,6.471114414948224,4.184171644766629
1701290864824578000,5.745578125,-7.426615396884083,7.033244440084696,5.378450110900402
1701290864834653000,5.75565283203125,-6.025142333295941,4.102531764695048,5.142368733918667
1701290864844728000,5.76572802734375,0.20610713101122527,2.4889894833534956,3.335701589268446
1701290864854803200,5.77580322265625,4.72321977726221,2.7780460791975257,1.0014026091501116
1701290864864877800,5.7858779296875,4.589104152283072,3.4916485223054883,-0.5540805741935968
1701290864874953000,5.795952880859375,2.4491502249181267,4.968075996851921,-0.7251809449598193
1701290864885028000,5.806028076171875,-4.488245484739542,7.286310854136944,-0.46905134394466874
1701290864895103000,5.81610302734375,-8.13314337156117,5.496033703273534,1.1909887769386172
1701290864905178000,5.82617822265625,0.06353460679948329,0.9619511809885501,1.5385110057547688
1701290864915252000,5.836251953125,4.6064849106729024,-0.8358774081677198,1.0225222618073224
1701290864925327000,5.8463271484375,3.6251363707751034,-2.179002327683568,1.0061915969923139
1701290864935402000,5.856402099609375,2.802090971651673,-3.31241891335845,1.0025260602220891
1701290864945477000,5.86647705078125,3.731203712877631,-2.8507489118367433,1.0492442645162343
1701290864955552000,5.876552001953125,5.369311111155152,-0.6909323461383581,0.996683471673727
1701290864965627000,5.886626953125,6.400875926595926,1.2844190480470656,0.4919634329766035
1701290864975702000,5.896701904296875,6.310557357767224,3.7961283127307888,0.7184741407975554
1701290864985777000,5.90677685546875,5.309864065930247,5.826932129547,1.3244269410476088
1701290864995852000,5.91685205078125,3.406534536382556,4.869526775294542,1.0160948591083288
1701290865005927200,5.92692724609375,0.17442483901381492,1.7191408368885517,0.658259326070547
1701290865016001000,5.9370009765625,-4.321111971777677,-0.4054214600771665,1.3988304401248692
1701290865026076200,5.947076171875,-6.66741557020545,-1.417811034926772,1.2185033913299441
1701290865036151000,5.957151123046875,-3.7838486768722532,-1.406852418538928,-0.05724105961322784
1701290865046226000,5.967225830078125,-0.17212417912231756,-1.0186994886487721,-0.3217290313899517
1701290865056301000,5.977301025390625,0.8139712813079356,-0.7930413060039282,-0.1270247899353504
1701290865066376000,5.9873759765625,0.4902607207119465,-0.8688526260524988,-0.14551146374046803
1701290865076451000,5.997451171875,-0.2216624092732556,-1.149793135458231,-0.44669513522982596
1701290865086526000,6.00752587890625,-0.9890846871078014,-1.467884687128663,-0.5083046191856265
1701290865096601000,6.01760107421875,-1.3699626575589179,-1.6586515891343354,-0.5239671754807234
1701290865106676200,6.02767626953125,-1.3080115205585956,-1.6985627437621353,-0.6467416144952177
1701290865116750800,6.037750732421875,-1.2794400905907153,-1.6074457180321216,-0.6007733517855406
1701290865126826000,6.047825927734375,-1.5606863049447535,-1.1649363440543412,-0.07025134783387184
1701290865136899800,6.05789990234375,-1.9752958646059036,-0.768367467996478,0.6142021576792002
1701290865146975000,6.06797509765625,-2.6023943287372586,-1.1054624108225106,1.0026958638310433
1701290865157049900,6.0780498046875,-2.770519190824032,-1.8155413559794424,1.0426809604778886
1701290865167125000,6.088125,-2.3982138184070587,-2.4227467866390944,0.40120559594780203
1701290865177200000,6.0982001953125,-2.4150796130120753,-2.800680520331859,-0.7389055189296603
1701290865187275000,6.10827490234375,-2.5242566115677354,-2.8585931955963373,-1.834222091051936
1701290865197350100,6.11835009765625,-1.9702023408591747,-2.3308652062773705,-2.252000343877077
1701290865207425000,6.128425048828125,-1.0828583648264407,-1.4288590831637382,-2.0872280070886013
1701290865217500000,6.1385,-0.3764613230526447,-0.863059429603815,-1.7793936455383896
1701290865227575000,6.148574951171875,0.09183598765432834,-1.047122450056672,-1.6373180014654993
1701290865237648600,6.158648681640625,0.3539139756798744,-1.4468424836218357,-1.6543360640227793
1701290865247723800,6.168723876953125,0.7391121474176645,-1.5950205362230538,-1.2945970354512333
1701290865257798700,6.178798583984375,1.44291800365448,-1.610770478540659,-0.3815311736628413
1701290865267873800,6.188873779296875,1.8296885392755269,-1.7346096241772173,0.5191954310342669
1701290865277949000,6.198948974609375,1.3640975649178027,-1.9609785854399202,1.137090598012507
1701290865288023800,6.20902392578125,0.5713239334067329,-2.17511876424849,1.5586001463204622
1701290865298098700,6.2190986328125,0.07749591213464736,-2.1610481533199546,1.946081460559368
1701290865308173600,6.229173583984375,-0.1537426644584164,-1.8929133494734762,2.245957556581497
1701290865318248700,6.239248779296875,-0.82435122102499,-1.4169710769712924,2.0968404695644973
1701290865328323800,6.24932373046875,-1.23099725446105,-0.29330490093827244,1.2638909315422178
1701290865338398700,6.259398681640625,0.24540267449133096,0.9264321238398552,0.08556026838570832
1701290865348473900,6.269473876953125,1.7838731290400027,1.5465139872074127,-0.5973591594278812
1701290865358547700,6.279547607421875,1.9196008653908967,1.011966965523362,-0.5172536493167281
1701290865368622800,6.289622802734375,0.33836572994682934,-1.118999937787652,0.6297197525456547
1701290865378698000,6.299697998046875,-2.2884768478810784,-2.8289894999712706,2.8399910787180063
1701290865388772600,6.309772705078125,-3.335130511382222,-2.6852877160012723,5.5277709037959575
1701290865398847700,6.31984765625,-0.8605704623322934,-0.24584815323650835,7.250926237022877
1701290865408922600,6.329922607421875,0.5455846215922385,2.5149872634410855,7.014079136365652
1701290865418997800,6.339997802734375,-0.5980481646053493,3.9864065544366833,5.744526818060875
1701290865429073000,6.350072998046875,-1.0621465623177588,3.910449688437581,4.138196367794275
1701290865439147800,6.360147705078125,-0.8337140195887536,2.406182020807266,2.2296751148223874
1701290865449223000,6.370222900390625,-0.6689112145967782,1.4557178639948367,1.1302005462378262
1701290865459297500,6.380297607421875,-0.4538869464300573,1.7203361841529607,0.4319955787479877
1701290865469372000,6.390371826171875,-0.11875775071904063,2.571389534142613,-0.20319675998985767
1701290865479446500,6.400446533203125,0.4115495875686407,4.335028268927336,-0.02390051554739475
1701290865489521700,6.410521728515625,0.8409623102165759,6.117454121768474,0.22231179482638835
1701290865499596800,6.4205966796875,0.6626775809042156,7.637817768675088,0.10180442396104335
1701290865509671700,6.430671630859375,0.4355776750184595,8.188097197020053,-0.3665887483358383
1701290865519746800,6.440746826171875,0.7305372112959623,6.829711580008268,-1.1906149751901627
1701290865529822000,6.450822021484375,0.9887585238933563,3.5507021842986344,-1.8239765913695096
1701290865539896800,6.460896728515625,0.8123599005885421,0.705690354809165,-2.0457073714375493
1701290865549971700,6.4709716796875,0.4289245007395744,-0.8446306234657764,-2.2094547490924596
1701290865560046600,6.481046630859375,0.06517185261249542,-1.2749527160435914,-2.3689088134676215
1701290865570121700,6.491121826171875,0.042784371976554395,-0.7489128259420395,-2.1125416043043135
1701290865580195600,6.501195556640625,0.08241247187927365,0.5112912337809801,-1.400608555713296
1701290865590270700,6.511270751953125,-0.10075549943000077,2.0021049610763786,-0.5466700056761503
1701290865600345900,6.521345947265625,-0.25614859797656536,3.0033301678329702,0.04873977324962616
1701290865610420700,6.531420654296875,-0.1678770248055458,3.0014474228262897,0.2140484088718891
1701290865620496000,6.541495849609375,-0.14168167631924153,2.203252971842885,-0.09351122739017009
1701290865630570800,6.55157080078125,-0.4610100763082504,1.3204787879437208,-0.6803536689788102
1701290865640645600,6.561645751953125,-0.707682113148272,0.6286375102669001,-1.2804694336384534
1701290865650720800,6.571720703125,-0.5739950888447464,0.2401297755897045,-1.817767215335369
1701290865660795600,6.581795654296875,-0.27244331469535826,0.025750527328252792,-2.345687512356043
1701290865670870800,6.591870849609375,0.15398820018470286,-0.18850129516124725,-2.8564216967761515
1701290865680946000,6.60194580078125,0.6213412157788872,-0.42958793308436866,-3.3362165530532595
1701290865691019800,6.612019775390625,0.9496015486337244,-0.7146054826706647,-3.7809085317671296
1701290865701095000,6.622094970703125,1.0557105379208922,-1.0530044938325882,-4.110775276905298
1701290865711169800,6.632169677734375,0.9022377399124205,-1.4423089318454265,-4.354744192266464
1701290865721245000,6.642244873046875,0.6923290611937641,-1.7873410974115131,-4.413954506126046
1701290865731319600,6.652319580078125,0.49611952974274753,-1.950128690123558,-4.218258915546536
1701290865741394700,6.662394775390625,0.524695197494328,-2.112057620179653,-3.969734236577153
1701290865751469800,6.6724697265625,0.6859948897361755,-2.3672265594691035,-3.81332202411592
1701290865761544700,6.682544677734375,0.8304764259070158,-2.6556419348001477,-3.7257162213772532
1701290865771619800,6.692619873046875,0.925069018793106,-2.9575346313416957,-3.668198682910204
1701290865781694700,6.70269482421875,0.8256378998346626,-3.2404221831619737,-3.643244274395704
1701290865791768800,6.712768798828125,0.6098569680817425,-3.445479476326704,-3.6229794850021597
1701290865801843700,6.72284375,0.3237380331248045,-3.484786235320568,-3.4988434022456407
1701290865811918800,6.7329189453125,0.08052782717645168,-3.4411984380066394,-3.1733015345692634
1701290865821993700,6.74299365234375,0.06789280200898647,-3.44725876095891,-2.7350600471690294
1701290865832068600,6.753068603515625,0.22537995022535323,-3.4554823994249104,-2.1108941293582317
1701290865842143700,6.763143798828125,0.20179726845547555,-3.3347973339051005,-1.2095526076331733
1701290865852219000,6.773218994140625,-0.22649171085953712,-3.059513827347755,0.16108955662250518
1701290865862293800,6.783293701171875,-0.8778108624033629,-2.778009838840365,2.1788123580694196
1701290865872369000,6.793368896484375,-1.776023730713874,-2.5658295619279143,4.294520901972056
1701290865882443800,6.80344384765625,-2.784846991384029,-2.6159657579720017,5.944681141614914
1701290865892518000,6.813517822265625,-3.04555486010015,-2.7335382444292304,6.876906461903452
1701290865902592800,6.8235927734375,-2.364446573361754,-2.8309020555943247,6.981279859569669
1701290865912667600,6.833667724609375,-1.5481833817243575,-2.805667076572776,6.264170285123586
1701290865922742800,6.84374267578125,-1.0059704285223037,-2.611989255556464,5.03698995860219
1701290865932817700,6.853817626953125,-0.8575929808914661,-2.2797353230208155,3.4327006587743756
1701290865942892800,6.863892822265625,-0.8310182776987552,-1.8181904091835022,1.9170143560290336
1701290865952967700,6.8739677734375,-0.9013006051927804,-1.268612407106161,0.594101326675713
1701290865963042800,6.884042724609375,-1.4093816447556018,-0.7192904256165027,-0.5248734766706824
1701290865973118000,6.894117919921875,-2.086276113191247,-0.2747293798059225,-1.0653665472775697
1701290865983192600,6.904192626953125,-2.5104163022637365,0.03323240751624107,-0.9634352820664643
1701290865993267700,6.914267822265625,-2.6118542309999464,0.12222294261157512,-0.42906186338365077
1701290866003342800,6.9243427734375,-2.375674654340744,0.5848129815876484,0.39736441034972664
1701290866013416700,6.934416748046875,-1.7275637973189353,2.197389048245549,1.6079548365980385
1701290866023491800,6.944491943359375,-2.3705595032840967,4.388254832202196,2.958675033548474
1701290866033566700,6.954566650390625,-4.771203179186582,6.136213182774186,4.107430642652512
1701290866043641900,6.964641845703125,-4.2324008381456135,6.0184203315645455,3.7976492386877534
1701290866053716700,6.974716796875,0.12050618355525657,4.642203289785981,1.5618749302074313
1701290866063791900,6.9847919921875,3.12099442422688,3.8793835190445183,-0.8712836525917053
1701290866073866800,6.99486669921875,2.6089555869489907,3.9719022282660004,-2.181118589185178
1701290866083941600,7.004941650390625,-0.20610826352238654,4.314712626129388,-3.8528853882193563
1701290866094016800,7.015016845703125,-3.7704596184670924,5.483944037029147,-5.460315908682346
1701290866104091600,7.025091552734375,-1.3612275624394417,7.15147626723349,-2.9589670022323724
1701290866114166800,7.035166748046875,3.465071481025219,7.644871194317936,0.5578638921245932
1701290866124241000,7.045240966796875,5.219506918656826,6.120749071660637,1.4413032619342208
1701290866134315800,7.055315673828125,3.579856382590532,3.5101860495150086,0.962606137765944
1701290866144391000,7.065390869140625,-0.8908242193639277,0.8968255056053399,1.926008394345641
1701290866154465800,7.0754658203125,-5.630724497792125,-1.6939257316112517,4.099569115497172
1701290866164540700,7.085540771484375,-0.46020928131937977,-2.535831898549199,3.5503763133451343
1701290866174615800,7.09561572265625,3.5474282771945,-1.7378776860624552,2.5014687334373593
1701290866184690700,7.105690673828125,4.282357001447678,0.39975744296610355,2.2671359536886215
1701290866194765800,7.115765869140625,3.593946282741427,1.8705425277113914,1.2022703416705132
1701290866204840700,7.1258408203125,2.7112685449540614,2.309354800736904,-0.406918128375709
1701290866214915800,7.135915771484375,2.1395102752506734,2.3510984314888717,-1.6934928931519388
1701290866224989700,7.14598974609375,1.7718927683889865,2.014070124158263,-2.5058228369936346
1701290866235065300,7.1560654296875,1.4373241291701793,1.5411667809605598,-3.104548608599603
1701290866245140200,7.16614013671875,0.8600947345793247,1.107192595615983,-3.4010245407894253
1701290866255215400,7.17621533203125,-0.07645663221478462,0.664441814097762,-3.4231185914367437
1701290866265290500,7.18629052734375,-0.9412135864514857,0.22293898681402205,-2.7854417424067854
1701290866275365400,7.196365478515625,-1.2399275798916816,-0.4616016124606132,-0.9499760810345411
1701290866285440500,7.2064404296875,-0.9587584493618458,-1.3513625865072012,0.6443605645775795
1701290866295515400,7.216515380859375,-0.7189092442791909,-2.0863462558180093,1.557682446953654
1701290866305590300,7.22659033203125,-0.9619031771283596,-2.553110950130224,2.4163231833323833
1701290866315665400,7.23666552734375,-1.508289762753248,-2.7368086444020268,3.20783888720423
1701290866325739300,7.2467392578125,-1.9498621481418608,-2.446017187589407,3.7999490400627254
1701290866335814400,7.256814453125,-1.8977029218375683,-1.7974790450662372,3.87082027336061
1701290866345889300,7.26688916015625,-1.4806383702397345,-1.4960107114166021,3.3640298581302166
1701290866355964400,7.27696435546875,-1.3071218782424927,-1.7678624899595974,2.8141850218102333
1701290866366039300,7.287039306640625,-1.740639551991224,-2.1009224781811238,2.453720893834531
1701290866376114400,7.297114501953125,-2.468900050526857,-2.3477561353236434,2.241591470326483
1701290866386189600,7.307189453125,-2.9147710098922253,-2.4959961472451684,1.9351304429560898
1701290866396264200,7.31726416015625,-2.8377169963061806,-2.596702254575491,1.1633858997419475
1701290866406339300,7.32733935546875,-2.41214297503829,-2.7261510567873715,-0.027174714912474154
1701290866416414500,7.33741455078125,-1.8143793264627455,-2.6717951972216367,-0.9891083602443337
1701290866426489300,7.3474892578125,-1.6678163078427313,-2.4221955824971197,-1.2837524008318781
1701290866436563500,7.3575634765625,-1.9871032067775725,-1.8143629598498343,-0.9520870818391441
1701290866446638300,7.367638427734375,-1.6385481277823448,-1.0714368071019649,-0.8606123287126421
1701290866456713500,7.37771337890625,-0.6998948202729225,-0.9760621239274739,-1.156503446751833
1701290866466788400,7.387788330078125,-0.19709837004952133,-1.3222265083938836,-1.1738614087879657
1701290866476863500,7.397863525390625,0.03392557741217315,-1.8350953667551277,-1.0326549487650394
1701290866486938400,7.4079384765625,0.25725509791374207,-2.466218264096975,-0.8969362725034355
1701290866497013200,7.41801318359375,0.3374351345658302,-3.0122464647382494,-0.5298971500515938
1701290866507088400,7.42808837890625,0.3760965813934803,-3.114794985064864,0.014724106401205061
1701290866517163300,7.438163330078125,-0.0530208115696907,-2.831906848722696,0.6748842976570129
1701290866527238400,7.44823828125,-0.5234896210968494,-2.2851129244059325,1.2686878104299306
1701290866537313500,7.4583134765625,-0.36551498162448404,-1.5644640699177979,1.473813492655754
1701290866547387400,7.468387451171875,0.36117432207167144,-0.8700298531383276,1.0690879058882594
1701290866557462500,7.478462646484375,0.5257996516048908,-0.43452188235521316,0.2744403337314725
1701290866567537400,7.488537353515625,0.37241296097729354,-0.44388709207177157,-0.6379167952656746
1701290866577612300,7.4986123046875,0.4980319757679477,-0.599565729561448,-1.2911296516016124
1701290866587687400,7.5086875,1.018886535653472,-0.24705519093871114,-1.3043208493471146
1701290866597762300,7.51876220703125,1.6376514712035655,0.25890929486155506,-0.9809984112858772
1701290866607837400,7.52883740234375,1.508288009187579,0.39322365728318687,-0.18260376155525446
1701290866617912300,7.538912353515625,0.7254115388453006,0.33107027570903297,1.212106383769214
1701290866627987500,7.548987548828125,-0.254550442064926,0.3029804917782545,3.0765912188768385
1701290866638062600,7.5590625,-0.7861229779828339,0.476346761649847,5.076823956340551
1701290866648136400,7.569136474609375,-1.570344360128045,0.6739303579330443,6.570462093406915
1701290866658211600,7.579211669921875,-2.6662697117984293,0.9261100522786379,7.431969032871723
1701290866668286200,7.5892861328125,-3.2566333132505414,1.5095774644762276,7.062056693071127
1701290866678361300,7.599361328125,-2.8460388344496486,2.3658114319741723,5.420654929423332
1701290866688436200,7.609436279296875,-1.6616244674652814,2.9957968497186895,3.0802076558083296
1701290866698511400,7.619511474609375,-1.1389238047890364,3.4440129109054802,1.113656823194027
1701290866708586500,7.62958642578125,-0.6476021768473088,3.5751527349442243,-0.19314006087779997
1701290866718661400,7.639661376953125,0.24469781415760516,3.4924446411192416,-1.048482047972083
1701290866728736500,7.649736572265625,0.7076777292340993,3.8494682732522487,-1.1062322261512278
1701290866738811400,7.659811279296875,0.770294052144885,4.8605789142072195,-0.7807429654449224
1701290866748886300,7.66988623046875,0.6614151597529649,6.234679986745118,-0.3154547734260559
1701290866758960400,7.67996044921875,0.7326987732440233,7.064603454944491,0.23404607176184652
1701290866769035300,7.69003515625,1.044239588096738,6.068159637245535,0.44380233639776706
1701290866779110400,7.7001103515625,1.2864620981819928,3.2983634999990463,0.19090075751841068
1701290866789185300,7.710185302734375,1.0410548205807804,1.2584732904076577,-0.24677988112866878
1701290866799260400,7.720260498046875,0.7923318425603211,0.29427637631893155,-0.8519564363092184
1701290866809335600,7.73033544921875,0.7081203584350645,-0.0058604164659976955,-1.0520037923574448
1701290866819410400,7.740410400390625,0.3304582812905311,0.20669161636829375,-0.6640776569604874
1701290866829485300,7.7504853515625,0.07236965516209602,0.7593097167938947,-0.11650281139910221
1701290866839560200,7.760560302734375,0.23320172989219426,1.2061930680721997,0.01506488266289234
1701290866849635300,7.77063525390625,0.6934253319978714,1.258983578017354,-0.5320271478176116
1701290866859709200,7.780709228515625,1.0274623485580086,0.9481137942939997,-1.539945130211115
1701290866869784300,7.790784423828125,1.0707423950970172,0.3937082259297371,-2.4718127231031657
1701290866879859500,7.800859375,0.9780796012297273,-0.14860475358068942,-3.1440111426770687
1701290866889934300,7.810934326171875,0.9396078317552804,-0.5424912586867809,-3.5903035423249006
1701290866900009500,7.821009521484375,1.0210638796925544,-0.835953396013379,-3.871830327185988
1701290866910084600,7.831084716796875,1.2105701141126453,-1.098203233474493,-4.097771418425441
1701290866920159200,7.8411591796875,1.3236726155489682,-1.4170084863722323,-4.38175787139833
1701290866930234400,7.851234375,1.2765011145293712,-1.7179934204190968,-4.628579253581166
1701290866940309200,7.861309326171875,1.08685123385489,-1.9416922856897114,-4.79237514655292
1701290866950384400,7.87138427734375,0.8565976862438023,-2.106429258903861,-4.824009471222758
1701290866960459500,7.88145947265625,0.756235716176033,-2.357580194723606,-4.802892448914051
1701290866970533400,7.891533447265625,0.8405518297195435,-2.6752064669698474,-4.860099021735787
1701290866980608500,7.9016083984375,0.6230119254700839,-2.880628501793742,-4.886892336115241
1701290866990683400,7.911683349609375,0.40518882036507126,-2.905867572468519,-4.761711128219962
1701290867000758500,7.921758544921875,0.09589125439450144,-2.7158880214482544,-4.46103832886219
1701290867010833200,7.931833251953125,-0.5496690413616597,-2.222016709023714,-4.109721968460083
1701290867020908300,7.941908203125,-1.0886140057437121,-1.401899180045724,-3.4910067172706123
1701290867030983400,7.9519833984375,-0.9587151216767728,-0.8327338494449853,-2.446983110012114
1701290867041058300,7.962058349609375,-0.43685178660750384,-0.9913321737736462,-1.1613833277478813
1701290867051133400,7.972133544921875,-0.40740751932784913,-1.4587784206092356,0.23035686185508966
1701290867061208600,7.98220849609375,-0.9404080422222614,-1.7214233948677777,1.4988298604905606
1701290867071282400,7.992282470703125,-1.7985569034308193,-1.5278326676130294,2.6111191947236656
1701290867081357600,8.002357666015625,-2.552368607330322,-1.0966945824772119,3.5128719275981184
1701290867091432400,8.012432373046876,-2.866962964534759,-0.9079209001153707,4.061065489579737
1701290867101507300,8.02250732421875,-2.5892367410004136,-1.4654384630203245,3.916682737608254
1701290867111582200,8.032582275390626,-2.064656402057409,-2.2448826208263633,3.329690073893964
1701290867121657300,8.0426572265625,-1.5454045646607875,-2.7050188369095323,2.8417046046376226
1701290867131732500,8.052732421875,-0.5904384202539921,-2.9000328749656674,2.4836057444885373
1701290867141807400,8.062807373046875,0.1598152258377522,-2.8412802417457104,2.109981982949376
1701290867151882500,8.072882568359375,0.48899347725510595,-2.471589435741305,1.677151122421026
1701290867161957400,8.082957275390624,0.39947636100240047,-1.8329998557806013,1.2043375033333896
1701290867172031500,8.093031494140625,-0.14489888480007648,-0.9188596427589655,0.5954179622322321
1701290867182106400,8.1031064453125,-1.1253449229001997,0.06403086588382721,0.047807168574631215
1701290867192181200,8.11318115234375,-2.2416560599952935,0.6196037244617939,-0.27351240523159503
1701290867202256400,8.12325634765625,-2.9161358685046435,0.532591795963049,-0.19784575435072183
1701290867212331300,8.133331298828125,-2.6735639604598282,0.8267658809512853,0.7437664029642939
1701290867222406400,8.143406494140624,-2.075833629631996,1.7745985202163457,2.256892792093754
1701290867232481500,8.1534814453125,-3.152863726696372,2.8038082969635725,3.912946765950322
1701290867242555600,8.1635556640625,-4.224320407542586,3.455021796175837,5.721044820186496
1701290867252630500,8.173630615234375,-1.5381085624337196,3.2912837708711624,6.4384864030659195
1701290867262705700,8.18370556640625,2.3347826719820497,3.4548236432552337,5.455583619463443
1701290867272779500,8.193779541015624,2.687624049994349,4.064609738057851,3.353415525135398
1701290867282854700,8.203854736328125,-1.1823884141147136,4.359630210742354,-0.32036095790714025
1701290867292929500,8.213929443359374,-7.900946142536402,4.543878524634242,-4.069837701839209
1701290867303004400,8.22400439453125,-5.155912690624595,4.794375380459427,-2.8272400259554384
1701290867313079600,8.23407958984375,1.946089059343934,3.4322470697879788,-0.7276978962168097
1701290867323154400,8.244154541015625,4.049820749726892,2.230728423267603,-0.5126917482286691
1701290867333229600,8.2542294921875,4.0613849307924506,2.7428952708393335,-0.052609015898406504
1701290867343304400,8.264304443359375,3.792959619566798,3.373499112743139,0.33718875858932734
1701290867353379600,8.274379638671874,3.1929075677931307,3.6081852359741924,0.15773644680231808
1701290867363454500,8.284454345703125,2.367840891975164,2.7722984754562376,-0.6105372054308652
1701290867373528600,8.294528564453126,2.0858961739629507,1.156902675202489,-1.5039131551042197
1701290867383603500,8.304603515625,2.584877961269021,-0.2970008328467607,-1.788667669840157
1701290867393678300,8.31467822265625,3.2003152137011286,-0.6906523601531982,-1.4330720246836541
1701290867403753500,8.32475341796875,3.17920052947998,0.4863420859634876,-0.6394812681034207
1701290867413828600,8.33482861328125,2.2792186056703327,1.443009189069271,0.596654518289864
1701290867423903500,8.344903564453125,1.2664344785451889,0.6585778905004263,1.5835253287404776
1701290867433978600,8.354978515625,0.6936532955348491,-0.5997299802124499,2.017436677981913
1701290867444053500,8.365053466796875,0.060826507751410824,-1.244262978747487,2.349819497594237
1701290867454128400,8.37512841796875,-0.8593921392679214,-0.9835124399334192,3.0747832926720378
1701290867464203500,8.38520361328125,-1.4272212528288364,-0.540146741387248,3.42879488350749
1701290867474278400,8.3952783203125,-1.409034438753128,-0.6876970174789429,2.5909514359638095
1701290867484352500,8.4053525390625,-1.381538529062271,-1.0778753157168626,0.9551523146286606
1701290867494427400,8.415427490234375,-1.5236989288091658,-1.3295581664562224,-0.3501289041832089
1701290867504502500,8.42550244140625,-1.5216519331514835,-1.3842460344552994,-1.1238073380693792
1701290867514577400,8.435577392578125,-1.4280945285320281,-1.1853706447958945,-1.5086717478081584
1701290867524652500,8.445652587890624,-1.402462074625492,-0.946951180255413,-1.5855737857028842
1701290867534727700,8.455727783203125,-1.3504793739318848,-1.075221001815796,-1.4338570375815034
1701290867544802300,8.46580224609375,-1.363985336714983,-1.4524842889010905,-1.1421826604545116
1701290867554877400,8.47587744140625,-1.1454243457894773,-1.4453484456717967,-0.5639160317704082
1701290867564952600,8.48595263671875,-0.702618692278862,-0.9739835640877484,0.4031894632413983
1701290867575026400,8.4960263671875,-0.47415363551974293,-0.7679150480538606,1.279653441080451
1701290867585101600,8.5061015625,-0.8975017974317073,-1.4499983173042534,1.5596961248636245
1701290867595176400,8.516176513671875,-2.1559996377587316,-2.51134276945889,1.430062321473658
1701290867605251600,8.52625146484375,-3.359084802943468,-3.3719501297354695,1.0638932598546147
1701290867615326500,8.536326416015624,-2.964249618810415,-3.5153958931177853,0.4240940118432045
1701290867625401600,8.546401611328125,-0.995351930809021,-2.8792192195177075,-0.11294628796130418
1701290867635476500,8.5564765625,0.2116167612781748,-2.169211001509428,-0.3451689436882734
1701290867645551400,8.56655126953125,0.36849549527261405,-2.010248520043492,-0.6479001368805766
1701290867655626500,8.57662646484375,-0.03933832317590713,-2.321214749878645,-0.9519590715453028
1701290867665701400,8.586701416015625,-0.9399860174179077,-2.3624416632801295,-0.7574976989358663
1701290867675775500,8.596775390625,-1.702688883781433,-1.4472668465137482,0.17783873911052941
1701290867685850600,8.6068505859375,-1.890550711995363,-0.5899094279438257,0.5443208122014999
1701290867695925500,8.616925537109376,-1.8268822496831416,-0.4027344129502773,0.03930938934236765
1701290867706000600,8.627000732421875,-1.338428870654106,-0.29303485182523725,-0.48968029047548767
1701290867716075500,8.637075439453126,0.3007143004119396,-0.0031499884635210035,-0.3500330425933003
1701290867726150400,8.647150390625,1.1560177090615034,-0.38393092828094955,0.14466653734892607
1701290867736225500,8.6572255859375,-0.509299804235436,-1.472442788824439,0.836003957156837
1701290867746300400,8.667300537109375,-3.1045202592879533,-2.315511569800973,1.8275035964518784
1701290867756375600,8.67737548828125,-2.7919577001720666,-2.232347548902035,2.325059442608058
1701290867766450400,8.687450439453125,0.949953869202733,-1.2668021428138017,1.7904083760276435
1701290867776524500,8.697524658203125,2.504129769340157,-0.08355798865258693,0.7273369539499283
1701290867786599400,8.707599365234374,2.3995436057060955,0.032735563910007474,-0.3563160683855414
1701290867796674600,8.717674560546875,2.2762381285548208,-0.4988227973520755,-0.8024050544157624
1701290867806749700,8.727749755859374,1.5255838657729326,-0.706415746474266,-0.7547030997812747
1701290867816824300,8.73782421875,-0.5933452476114034,-0.3300853563249111,-0.0864066560819745
1701290867826899500,8.7478994140625,-3.19658304143548,0.5523194097399712,1.7765648518532513
1701290867836974600,8.757974609375,-3.387244729501009,1.3151608077913521,3.7803064742207524
1701290867847049500,8.768049560546874,-1.701523347133398,1.4942963087141512,4.574491689562797
1701290867857124600,8.77812451171875,-1.3568103305190802,1.8186007435500622,4.93594365953207
1701290867867198500,8.788198486328126,-1.286781393264234,2.3803525830239054,4.852797758811712
1701290867877273600,8.798273681640625,-0.671123337688297,3.245586434057355,3.683627138188481
1701290867887348500,8.808348388671876,0.19419044671356678,4.232728754925728,2.556357969227433
1701290867897423600,8.818423583984375,1.3126472175352275,4.82417372187376,2.305218139323592
1701290867907498500,8.82849853515625,1.8420555611565708,5.784823172613978,2.179873265299201
1701290867917573400,8.838573486328125,1.307650578291714,7.6157818779557935,2.2192554276168344
1701290867927648500,8.8486484375,0.10028437478691339,9.377992625764012,2.0817747101187707
1701290867937723400,8.858723388671875,-0.8134532487832009,8.428256198704242,1.1712129401057958
1701290867947798500,8.868798583984375,-0.7753416909232735,4.960553784653544,-0.36552842562794685
1701290867957873700,8.878873779296875,-0.15853490370362996,2.452960723116994,-1.9755910481601953
1701290867967947500,8.888947509765625,0.43558191280215974,1.4503396780878304,-3.197603032132983
1701290867978022700,8.899022705078124,0.5452519555717706,1.2091285370022058,-3.3428093754470347
1701290867988097500,8.90909765625,0.42566812929213044,1.0989806475877761,-2.736719212552905
1701290867998172400,8.91917236328125,0.23432635000795124,1.068818149036169,-1.8036276308238506
1701290868008247600,8.92924755859375,0.195596221858263,1.0472662424415349,-1.1911638412445782
1701290868018322400,8.939322509765624,0.4050935432970524,0.8924211331665516,-1.2341735464096069
1701290868028397600,8.9493974609375,0.8423755380153656,0.5073614931166172,-1.8783347890228033
1701290868038472400,8.959472412109376,1.171764436508715,-0.03250876941680908,-2.656805133360624
1701290868048547600,8.969547607421875,1.368933022250235,-0.5165156904309988,-3.3044232384294268
1701290868058622700,8.979622802734376,1.439303320288658,-0.8533008366554975,-3.9345162082016465
1701290868068696600,8.989696533203125,1.423926302936673,-1.0864473292291164,-4.404481159859896
1701290868078771700,8.999771728515626,1.380563546550274,-1.250574061590433,-4.6735880236089224
1701290868088846300,9.009846435546875,1.273556585510075,-1.3217062839120626,-4.747957912677526
1701290868098921500,9.01992138671875,1.0991935596860944,-1.4002993436336517,-4.708454754328727
1701290868108996400,9.029996337890625,0.9546005259647965,-1.5171289027690886,-4.590738475486636
1701290868119071500,9.040071533203125,0.8650497266381979,-1.707873592942953,-4.484676394081116
1701290868129146600,9.050146728515625,0.8661550575315952,-1.9422458279192447,-4.44468223734498
1701290868139221500,9.060221435546875,0.8368249181509018,-2.1769734522044657,-4.423634188619256
1701290868149296600,9.070296630859374,0.7718062102735042,-2.387478489381075,-4.422834562674164
1701290868159370500,9.08037060546875,0.5816738067790865,-2.6177777758300302,-4.355022424685955
1701290868169445600,9.090445556640624,0.4741274781651795,-2.755356108483672,-4.104161996245384
1701290868179520500,9.1005205078125,0.5932121227510273,-2.7312691304534673,-3.658479837450385
1701290868189595400,9.110595458984376,0.8609523743219674,-2.568790749821067,-2.8962913503497836
1701290868199670500,9.12067041015625,0.9915344183474779,-2.279647644737363,-1.9430226575106382
1701290868209745400,9.130745361328126,0.7209409693025052,-2.054930542334914,-1.1937860064417123
1701290868219820500,9.140820556640625,0.22432795695438978,-1.9446271700978277,-0.5411982962667942
1701290868229895700,9.150895751953126,-0.13509455301389098,-1.8783605079859493,0.47538639218509193
1701290868239970600,9.160970458984375,-0.41261802051775154,-1.9394798703372478,1.9294056355684994
1701290868250045000,9.171044921875,-0.9922812911920249,-2.227330013000965,3.0489722673282027
1701290868260119600,9.18111962890625,-1.7346172229617833,-2.624915372624993,3.663067749762535
1701290868270194700,9.191194580078125,-2.0812509785056115,-2.827929761785269,3.8442645671293136
1701290868280269800,9.201269775390625,-2.2179133653581142,-2.750409884253144,3.5649729939743873
1701290868290344700,9.2113447265625,-2.369225039809942,-2.3933505962848662,2.9160210099533197
1701290868300419800,9.221419921875,-2.373921088671684,-1.8690964205563068,2.246304470323026
1701290868310494700,9.23149462890625,-2.252238828808069,-1.2101654788345098,1.8819900966599583
1701290868320569900,9.24156982421875,-2.24401226773262,-0.6131371587961911,1.7764131684228777
1701290868330644700,9.251644775390625,-2.528677935141325,-0.04948679222464561,1.7102660410374402
1701290868340719600,9.2617197265625,-3.0891590240269897,0.39263387469649313,1.4116075041115284
1701290868350793700,9.271793701171875,-3.3880729970186945,0.7806909429967402,0.8995286270841956
1701290868360868600,9.28186865234375,-3.5960318568438288,1.0096294624865054,0.5090279650241136
1701290868370943700,9.29194384765625,-3.8263592003434894,1.2239561037778854,0.18113894969969987
1701290868381018600,9.3020185546875,-4.2165404211908575,1.9717916558772324,0.2712906375288963
1701290868391093800,9.31209375,-4.368145525631308,3.938372883629799,1.4374316811978816
1701290868401169000,9.3221689453125,-4.758983164560795,6.1071589377254245,3.1842657039150595
1701290868411243800,9.332243896484375,-6.675543931603431,7.937416216799616,4.9976796924769875
1701290868421318700,9.342318603515626,-7.316198627400397,6.854031197750568,6.7963926632523535
1701290868431393800,9.352393798828125,-3.2289024257600305,2.985005406591296,6.966013316854834
1701290868441467600,9.362467529296875,3.069973262041807,0.31550796491801736,4.784043079276382
1701290868451542800,9.372542724609374,6.10493015576005,-0.347857159858942,1.5634601535722612
1701290868461617700,9.38261767578125,4.831119010967016,0.01654196947813034,-1.0223583034172654
1701290868471692800,9.39269287109375,2.913260605329275,0.23929449380934237,-2.6212293775886297
1701290868481767700,9.402767578125,0.6585884118944406,1.0290373427897692,-4.051397497524321
1701290868491842800,9.4128427734375,-6.048117550691962,3.336956557765603,-5.52584490416944
1701290868501918000,9.42291796875,-5.531354022979736,4.326136521941423,-4.102074960838258
1701290868511992600,9.43299267578125,1.27165425902009,3.3593723877131936,-2.2314915165945886
1701290868522067700,9.443067626953125,4.880945410409569,1.5748872642546892,-2.1465461652368307
1701290868532142600,9.453142578125,5.082668590715527,0.5432932227194309,-2.1946692678928374
1701290868542216700,9.463216796875,4.373192872148752,0.7647749964624643,-1.5471014317065477
1701290868552291800,9.473291748046876,3.644020519465208,1.750240908551216,0.042514615124464035
1701290868562366700,9.48336669921875,2.906141128712892,2.7785592894166706,2.1680559862554074
1701290868572441900,9.49344189453125,3.06204129999876,2.9341607700169083,3.0592893709421154
1701290868582516700,9.503516845703125,2.371111291947961,2.1419775421470404,2.609645322778821
1701290868592592000,9.513591796875,0.6514385401397943,1.501025909230113,1.8714093736737965
1701290868602666800,9.523666748046875,-1.8580635698884724,1.1608832692712545,0.9123615129113197
1701290868612741600,9.53374169921875,-3.149713738232851,0.9810925193101168,-0.5802163014471531
1701290868622816800,9.543816650390625,-1.7926608311295509,0.7850076371520758,-1.6122674391001461
1701290868632890600,9.553890625,0.07271102507882751,0.3332072877377271,-1.883915219503641
1701290868642965800,9.5639658203125,0.8356722409844398,0.07644961795210838,-1.695385282769799
1701290868653040600,9.57404052734375,0.6251777252018451,-0.0847188491255045,-1.2779434222921728
1701290868663115800,9.58411572265625,0.055708443218469614,-0.3211287274092436,-0.9502794478952884
1701290868673191000,9.59419091796875,-0.11450550010204315,-0.7428361363768577,-0.645540129750967
1701290868683265800,9.604265869140624,0.400142642891407,-1.1449334204673767,-0.1704910066962242
1701290868693340700,9.614340576171875,1.2086486445307731,-1.3690361903637647,0.27681758425682784
1701290868703415800,9.624415771484376,1.6410498814702033,-1.2347434552520513,1.1906284191936254
1701290868713490700,9.63449072265625,1.443641641753912,-0.6963613854497671,2.292582821895182
1701290868723565800,9.64456591796875,0.6134592303574085,-0.3551134145975113,3.0473852903977035
1701290868733639700,9.6546396484375,-0.7758780628222972,-0.6595557956218719,3.454815752209723
1701290868743714800,9.66471484375,-2.4506372486054895,-1.4401736733824013,3.4142771133333443
1701290868753789700,9.674789794921875,-3.524402790915966,-2.1803496506392954,3.0192107507929205
1701290868763864800,9.68486474609375,-2.7421640339553353,-2.4488117867439985,2.020328015509248
1701290868773940000,9.69493994140625,-1.5784055015087126,-2.353589079260826,0.6035916240766644
1701290868784014600,9.7050146484375,-1.5713058986365793,-2.2418056975990535,-0.6577677431613207
1701290868794089700,9.71508984375,-1.999748753339052,-2.299823002281785,-1.7928923017978666
1701290868804164600,9.72516455078125,-2.084623669809103,-2.456014849990606,-2.7303455858677625
1701290868814239700,9.73523974609375,-2.0168612161815167,-2.663366391572356,-3.2828555497437715
1701290868824313600,9.745313720703125,-1.8948294122278688,-2.6028701295554635,-3.104358054463565
1701290868834388700,9.755388671875,-1.1067688172459602,-1.655932977825403,-1.5797878957778215
1701290868844463900,9.7654638671875,-0.33449970216844227,-0.8329244035810232,-0.06614800416827202
1701290868854538800,9.775538818359376,-0.3463549020698294,-1.1327005463600157,0.21662147423028943
1701290868864614000,9.78561376953125,-0.6475976468026637,-1.8727204562723636,-0.021922785733640194
1701290868874688800,9.795688720703126,-0.30350365713583305,-2.3536907860696314,-0.44341158351451154
1701290868884763600,9.805763671875,0.36833175607826557,-2.541664257964492,-0.7113996723666787
1701290868894838800,9.8158388671875,0.44835634644031525,-2.4871096609562633,-0.7689204257041216
1701290868904913700,9.82591357421875,0.14497779525518417,-2.3120354181230067,-0.6837818898618221
1701290868914987800,9.83598779296875,-0.19469720892561598,-1.900842388907075,-0.14765987394601104
1701290868925062700,9.846062744140625,-0.6421428885281085,-1.2103303140074013,0.5988175415426492
1701290868935137800,9.8561376953125,-1.1911539043724537,-0.4653454751640558,1.094946862027049
1701290868945213000,9.866212890625,-0.8028554285317658,0.09864683671295642,1.005081297662854
1701290868955287800,9.876287841796875,0.1696808593571186,0.4867512512862682,0.3213935158252716
1701290868965362700,9.88636279296875,0.43910921014547344,0.9516068971067666,-0.5160387205690146
1701290868975437600,9.8964375,0.0640875645071268,0.9028034109711647,-1.0336743549406529
1701290868985512700,9.9065126953125,-0.5922673892468213,0.17151275095939636,-1.0221110506579278
1701290868995587800,9.916587890625,-1.1243705249100924,-0.3897755626559257,-0.3655404083266854
1701290869005662700,9.926662841796874,-0.32646837140414864,-0.036144495570659636,0.5389949410036206
1701290869015736800,9.93673681640625,-0.019531250954605638,0.46456396939754485,1.8070581897944211
1701290869025811700,9.946811767578126,-0.7745750904649495,0.26247078673541546,3.3230385070502755
1701290869035886800,9.956886962890625,-1.526990371569991,-0.44974575497210023,4.831332945978641
1701290869045962000,9.9669619140625,-2.6862457473784684,-1.4613520704895258,6.243785084220766
1701290869056036600,9.97703662109375,-2.881193734461069,-2.0936346592605113,7.073558914816379
1701290869066111700,9.98711181640625,-3.1001299153745174,-1.7129916666090488,6.979084395352006
1701290869076186600,9.9971865234375,-3.399331473135948,0.37821605776548384,5.421924510967731
1701290869086261800,10.00726171875,-2.0607161399990317,3.0001141283959147,3.0455028376519677
1701290869096335600,10.017335693359374,-0.895066679239273,5.099719094237685,1.1635206320375204
1701290869106410800,10.02741064453125,-0.480154191108793,6.457425496813655,-0.44948798081874847
1701290869116486000,10.03748583984375,0.2706276435755193,6.913067908608913,-1.6165291881978512
1701290869126560800,10.047560791015625,0.9058945088542998,6.751738113489747,-2.1653666010409593
1701290869136636000,10.057635986328124,0.8285989415973425,6.47375294675827,-1.9622072504520416
1701290869146710800,10.067710693359375,0.6603256109505892,6.163574067908525,-1.451343886694312
1701290869156785700,10.07778564453125,0.6772679779231547,5.543204619771242,-0.9909031347066164
1701290869166860800,10.08786083984375,0.6889081468343734,4.46738039136529,-0.45239363913238045
1701290869176935700,10.097935791015624,0.1350974756233394,3.620879297852516,0.19569909771084784
1701290869187010800,10.1080107421875,-0.5756166986972093,3.3261943407326933,0.7173585807710886
1701290869197084700,10.118084716796876,-1.0640969657331705,3.3422838902682064,0.6021417175292968
1701290869207159800,10.128159912109375,-0.8957911941215395,3.3960195721089836,-0.1907739162683487
1701290869217235000,10.13823486328125,-0.5700532193511724,3.3756524913847445,-1.1303080982655287
1701290869227309800,10.148309814453125,-0.2881272060394287,3.105470107358694,-1.9198329205811022
1701290869237384700,10.158384765625,0.26333237200081344,2.453814125075936,-2.401339256951213
1701290869247459800,10.1684599609375,0.6770530199982225,1.541384223103523,-2.507101478627324
1701290869257535000,10.178534912109376,0.8247190314240753,0.7170218961626291,-2.3273136512756345
1701290869267609900,10.18860986328125,0.7958711226023734,0.06307809520363808,-1.8829168561160563
1701290869277685000,10.19868505859375,0.7872562928617,-0.39682314307987687,-1.5464175410956142
1701290869287758800,10.2087587890625,0.9712626146912574,-0.4702689030408859,-1.4301456158429384
1701290869297834000,10.218833984375,1.3621968458630145,-0.3939817821741104,-1.5084288789629936
1701290869307908900,10.228908935546874,1.6132425677426159,-0.4153922344714403,-1.8189783446907997
1701290869317983700,10.238983642578125,1.7890930556453764,-0.26673604296445846,-2.0222049152970314
1701290869328059000,10.249058837890624,2.1854028423756358,-0.7761024461627006,-1.852780661049485
1701290869338133800,10.2591337890625,2.6923016864165663,-1.6321856070131062,-2.2041735938191414
1701290869348209000,10.269208984375,3.1010283255189655,-2.227480819648504,-3.0148224527060985
1701290869358284000,10.279283935546875,2.84292216373384,-2.5293016199976206,-3.8565368964642284
1701290869368359000,10.28935888671875,2.2730169745512305,-2.690487622731924,-4.701801726180315
1701290869378434000,10.29943408203125,1.7949599018521605,-2.823918772578239,-5.5652516164064405
1701290869388508000,10.3095078125,1.0538321768283843,-2.922780128824711,-6.529854188686609
1701290869398583000,10.3195830078125,0.28990765971541405,-3.005654811388254,-7.325912212163209
1701290869408657700,10.32965771484375,-0.5262526560693979,-2.8350469003140923,-7.707993713185191
1701290869418732800,10.33973291015625,-1.2281487331621348,-2.271485965591669,-7.4806982847273344
1701290869428808000,10.349807861328125,-1.3246766780249775,-1.6893331431239842,-6.767541831821203
1701290869438882800,10.3598828125,-0.9707651865631342,-1.253733402404189,-5.64011367290616
1701290869448958000,10.3699580078125,-0.592650251084566,-0.7396265266805887,-4.219851737695932
1701290869459032800,10.38003271484375,-0.3488682365976274,-0.46769583768248557,-2.6915175503015516
1701290869469108000,10.39010791015625,0.14680983298793435,-0.5384072042435407,-1.340868665021658
1701290869479181800,10.400181884765624,0.8796323787420988,-0.8078811477392911,-0.2221346846938133
1701290869489257000,10.410257080078125,1.6722487373322248,-1.2042390113949775,0.7483119374394417
1701290869499331800,10.420331787109374,2.42710454345718,-1.7685504722237586,1.7085148134559391
1701290869509406700,10.43040673828125,2.8234330348879095,-2.1965940984755754,2.911812160086632
1701290869519481900,10.44048193359375,2.3568571411460635,-2.234940488004684,4.317397335168719
1701290869529557000,10.450556884765625,0.914295841974765,-2.045745949882269,5.778810780456662
1701290869539631900,10.4606318359375,-1.2517998039931058,-1.9475947877317665,6.526642240902781
1701290869549707000,10.47070703125,-3.30014687628448,-1.7432944504141807,6.075380236148834
1701290869559782000,10.480781982421876,-4.557486194226145,-1.505039236524701,5.149451385655999
1701290869569856000,10.49085595703125,-4.40404393748641,-1.209957973563671,4.362280432990193
1701290869579931000,10.500930908203125,-3.2449586575478313,-1.250107613122463,3.6370074258327483
1701290869590005800,10.511005859375,-1.9565899950921535,-1.5254396349966526,2.83389480766952
1701290869600081000,10.521080810546875,-0.9586965631067752,-1.3997382026195526,2.199104912252724
1701290869610155800,10.53115576171875,-0.554449370973371,-1.0705138470381497,1.7660723916724324
1701290869620231000,10.54123095703125,-0.5470107088726014,-0.9270359349519014,1.1991571780860424
1701290869630305800,10.551305908203124,-0.7296347094982862,-0.8127753495216369,0.5565303054332733
1701290869640381000,10.561380859375,-1.1720394540578125,-0.8188520390868187,0.07370850255042315
1701290869650456000,10.5714560546875,-1.6162871961355207,-1.0815069502174854,-0.3444824227288365
1701290869660530000,10.581530029296875,-1.7691145358473062,-1.3775222791582344,-0.4730591182813048
1701290869670605000,10.59160498046875,-1.6028987222522497,-1.2891338016092777,-0.38736031820774075
1701290869680679700,10.6016796875,-1.8125234694629906,-0.46046354834139347,-0.1676692272737622
1701290869690754800,10.6117548828125,-2.639424959492683,1.4356447977811098,0.44861587415933607
1701290869700830000,10.621829833984375,-5.465657269710302,3.7426761240065094,1.4322007948070763
1701290869710904800,10.63190478515625,-8.316455865907669,5.522680302658677,3.600610124544799
1701290869720980000,10.64197998046875,-6.732663995185494,5.994091361472011,7.451582080358266
1701290869731054800,10.652054931640626,0.47994274031519885,4.708106963804364,9.44935047353506
1701290869741130000,10.6621298828125,6.907241978934406,1.608552802491188,7.704559647083282
1701290869751203800,10.672203857421875,7.960476774391531,-0.5654676451265812,4.037775214885175
1701290869761279000,10.682279052734375,5.389783405819535,0.19787585722804069,1.683285387392342
1701290869771353900,10.692353759765625,0.24773031372129917,2.1926175960600376,0.03487695985287428
1701290869781428700,10.7024287109375,-5.263032172128558,3.3336820661395787,-1.3090803188338875
1701290869791504000,10.71250390625,-3.7398061215281486,3.2377667002171275,-0.31489070980250833
1701290869801579000,10.7225791015625,0.8254197270393371,2.5539865639209745,-0.25012393085956575
1701290869811654000,10.73265380859375,1.8784528624445198,2.370756487160921,-0.9268635009944438
1701290869821729000,10.74272900390625,0.38644787953794,2.344929387465119,-1.5870821444392202
1701290869831804000,10.752803955078125,0.20951896701501682,2.201104269376397,-2.295177514563501
1701290869841878800,10.762878662109374,2.2519529976040125,2.2387521552473304,-2.08796771954
1701290869851953000,10.772952880859375,3.812590787231922,2.74683728646338,-1.599220033739507
1701290869862027800,10.78302783203125,4.298492143690586,3.423179381713271,-1.3572139428839087
1701290869872103000,10.79310302734375,4.192604249808192,3.6435242603808637,-1.3455688055366277
1701290869882177800,10.803177734375,3.567763793736696,2.9348709641128776,-1.3301339205175637
1701290869892253000,10.8132529296875,2.5874001732230183,1.7662252441465853,-1.2109309102490544
1701290869902327800,10.823327880859376,1.4536182613670825,0.9503905070543288,-0.8151727660521865
1701290869912403000,10.83340283203125,0.5205296022474766,0.44322658233642576,-0.2513373983025551
1701290869922478000,10.84347802734375,0.13721885169148446,0.0567547374010086,0.1162152266293764
1701290869932552700,10.853552734375,0.12188446790482849,-0.02207154655456543,0.30775983500927684
1701290869942627000,10.863626953125,0.36163664235379545,0.08496902449429035,0.4021794094160199
1701290869952701700,10.87370166015625,0.5539689305126667,0.09574527005255222,0.38513445885181424
1701290869962776800,10.88377685546875,0.3751729637425393,-0.17103344300985335,0.0739133774727583
1701290869972852000,10.89385205078125,-0.06573175151757896,-0.5665718069761991,-0.46282852390706536
1701290869982926800,10.9039267578125,-0.5446119041025638,-0.8606845171660185,-0.8618520996406673
1701290869993002000,10.914001953125,-0.7557996628463268,-1.0005705422401427,-0.9457923656091094
1701290870003076900,10.924076904296875,-0.6147323190331458,-0.9672247374773025,-0.6309224063336849
1701290870013152000,10.934152099609374,-0.5639701000452041,-0.8952595714628696,-0.13052256892323494
1701290870023227000,10.944226806640625,-0.7627483860056847,-0.9219897574782371,0.29566286224126814
1701290870033301000,10.954301025390626,-1.151726660804078,-1.1267232255160808,0.5561623489037156
1701290870043375900,10.9643759765625,-1.6889795073807239,-1.533120837149024,0.7891878454461694
1701290870053450800,10.97445068359375,-2.1325836908578872,-1.9650854362368582,0.985713457109034
1701290870063526000,10.98452587890625,-2.183307185270637,-2.2156132717221975,1.132241404415667
1701290870073600800,10.994600830078125,-1.7159994701229035,-2.1616233228594064,1.269457041236758
1701290870083676000,11.004676025390625,-0.9655318159542977,-1.8731442346423863,1.30339672023952
1701290870093751000,11.0147509765625,-0.4068401677686721,-1.7076017902642489,1.3124243685647845
1701290870103826000,11.024825927734375,-0.25073183362483975,-1.7854887475430965,1.2145862178862095
1701290870113900800,11.03490087890625,-0.40743981416225433,-2.0339128887474534,1.1603522311344743
1701290870123975000,11.044974853515624,-0.8295825458072126,-2.3478777158766984,1.184103693599999
1701290870134049800,11.0550498046875,-1.6144646568834782,-2.451414078196883,1.4036904473766683
1701290870144125000,11.065125,-2.344939324337244,-2.1162761146575213,1.8575623423680663
1701290870154199800,11.07519970703125,-2.424402591022104,-1.6471335852980613,2.066708366151154
1701290870164275000,11.08527490234375,-1.6142974836230277,-1.4599129775971174,1.4327020223274827
1701290870174349800,11.095349853515625,-1.24108244901523,-1.4226029453784226,0.437265628105402
1701290870184425000,11.105425048828126,-1.5042669369779527,-1.4734785616129635,-0.22664923950880764
1701290870194500000,11.1155,-1.432727449029684,-1.476883401620388,-0.5508429074466228
1701290870204574700,11.12557470703125,-1.2149765323780477,-1.4550819041788576,-0.775948716905713
1701290870214649000,11.135649169921875,-0.8502080582719296,-1.522154621976614,-1.0353867118164897
1701290870224723700,11.1457236328125,-0.2425520343005657,-1.561668301719427,-1.2676137514576316
1701290870234798800,11.155798828125,-0.08495083125047385,-1.4917413635343313,-1.1583426448777316
1701290870244873500,11.16587353515625,-0.6163479375362396,-1.5104969174087046,-0.8368734334677458
1701290870254948600,11.175948486328124,-0.8622936328630894,-1.55049107414484,-0.5104030527696013
1701290870265023700,11.186023681640625,-0.1057155329901725,-1.2131652451723813,-0.4265823215276003
1701290870275098600,11.1960986328125,0.497656055127643,-0.683015581664443,-0.4894394674569368
1701290870285173800,11.206173828125,0.2680640766978264,-0.490285855153203,-0.6761775523379445
1701290870295248600,11.21624853515625,-0.2183364614546299,-0.3439963927775621,-0.600517038936913
1701290870305322800,11.22632275390625,-0.05597849233150482,0.33638825586140153,-0.3067284461349249
1701290870315397600,11.236397705078126,0.6711445266067981,1.0592109472572804,-0.10845862115323543
1701290870325472500,11.246472412109375,0.40339141555428504,0.672571344539523,-0.42238662340343
1701290870335547600,11.256547607421876,-0.7583435021102428,-0.69527417473495,-0.49726270842850206
1701290870345622500,11.26662255859375,-1.2409867335557936,-1.795454261240363,-0.23786884492039678
1701290870355697700,11.27669775390625,-1.0060007505953312,-1.6907932788044213,0.10081950457692146
1701290870365772800,11.286772705078125,-0.8240777378458529,-0.4771738601237535,0.992878818693757
1701290870375847700,11.29684765625,-1.335001234292984,0.5406289719462395,2.2715283434286713
1701290870385922600,11.306922607421875,-1.6831144147396087,0.6156260530024766,3.4932732008978724
1701290870395996700,11.31699658203125,-2.4059423668324946,-0.389694898635149,4.256640960910916
1701290870406071600,11.327071533203124,-2.2215993603944777,-1.4819196422219276,4.624895012110471
1701290870416146400,11.337146484375,-1.836989802199602,-1.5583458792984484,4.532085795509815
1701290870426221600,11.3472216796875,-2.4453444028943774,-0.7665320692628622,4.3785722270995375
1701290870436296700,11.357296630859375,-2.6063322527080772,0.2465349664568901,4.297649263125658
1701290870446371600,11.36737158203125,-1.8738211109906433,1.4714198755174874,4.07800230359435
1701290870456446700,11.37744677734375,-1.5415367833167313,2.8111025456249714,3.1340222481042144
1701290870466521900,11.38752197265625,-1.3397200795084236,3.7225901983112095,1.2427753705382347
1701290870476596500,11.397596435546875,-0.4011206210780889,3.968459978857636,-0.8931716592729091
1701290870486670800,11.4076708984375,0.5949789862930774,3.989911347687244,-2.1320757413357496
1701290870496745500,11.417745361328125,0.6114455524474383,4.930923201021552,-2.311527468600869
1701290870506820600,11.427820556640626,0.17633505654931067,7.1894327806621785,-1.8234692263692616
1701290870516895500,11.4378955078125,-0.14489435475543141,9.506824757382272,-1.5581038872361181
1701290870526970600,11.447970703125,-0.2833453785903752,10.627407580447196,-2.2038316485136744
1701290870537045800,11.458045654296875,0.23932839607894418,8.723580622771381,-3.87330098426044
1701290870547120600,11.46812060546875,0.488721090054512,4.36916726989448,-4.595992158231139
1701290870557195800,11.47819580078125,0.08426233752965927,1.6772154198288916,-3.5875960369318722
1701290870567270400,11.4882705078125,0.005464841277152299,1.3855711455792188,-2.525723176988959
1701290870577344800,11.4983447265625,0.4621165762454271,2.322628123807907,-1.531429230800271
1701290870587419600,11.508419677734375,0.605207534840703,3.6109231365054844,-0.4928823013871908
1701290870597494500,11.51849462890625,0.17208806662932039,4.617183414819836,0.5888502742797136
1701290870607569700,11.528569580078125,-0.3597375672668218,4.6678562019586565,1.2551309942424296
1701290870617644500,11.53864453125,-0.6862680075891315,3.6532308308809993,1.5192103852182626
1701290870627719700,11.5487197265625,-0.612002747938782,2.1572855859160422,1.216463117673993
1701290870637794800,11.558794921875,-0.1291984807126224,1.0483452698498963,0.5043582196474075
1701290870647869700,11.56886962890625,0.3030351445749402,0.5655225901842117,-0.19741350041329858
1701290870657944600,11.578944580078126,0.47554085209444164,0.41666590766906736,-0.6724310592859983
1701290870668018700,11.589018798828125,0.5438382893815636,0.4962175832897424,-1.2116221073836086
1701290870678093600,11.599093505859376,0.6233722832150757,0.6008814883351326,-1.89372700394392
1701290870688168400,11.60916845703125,0.8643436241954564,0.5558095899432898,-2.711226459378004
1701290870698243600,11.61924365234375,1.2131044548958538,0.27739187701344487,-3.683455873274803
1701290870708318700,11.629318603515625,1.6303312113180755,-0.22107845363914966,-4.592655122762918
1701290870718393600,11.6393935546875,1.8712047910124063,-0.8668862944155931,-5.271749147069454
1701290870728468700,11.64946875,1.8859420491561292,-1.594363533619046,-5.7529749129325145
1701290870738543900,11.6595439453125,1.867710226894915,-2.186923183810711,-6.086982411137223
1701290870748618500,11.669618408203124,1.864594579092413,-2.5747031887352465,-6.237279355588555
1701290870758693600,11.679693603515625,2.028294464343786,-2.5979443635910746,-5.99196720892489
1701290870768767500,11.689767578125,2.262210772246122,-2.4980513262093065,-5.30193268840909
1701290870778842600,11.699842529296875,2.3753498063005507,-2.5442104353159665,-4.4401691438347095
1701290870788917500,11.70991748046875,2.327340100891143,-2.711127675178647,-3.7555087175726887
1701290870798992600,11.71999267578125,2.282084808756411,-2.956306550851464,-3.3453327564448117
1701290870809067800,11.73006787109375,2.304943998557329,-3.1893788091450928,-3.063997694763541
1701290870819142700,11.740142578125,2.2768901627227662,-3.3607354927599427,-2.854083609217405
1701290870829217800,11.7502177734375,2.329393526289612,-3.497365146386623,-2.727302564910054
1701290870839292400,11.76029248046875,2.4527894582033154,-3.6386797429591415,-2.7166601748645305
1701290870849366800,11.77036669921875,2.5339006382256746,-3.7146991528004407,-2.6819243770480155
1701290870859441400,11.78044140625,2.5174124447613955,-3.7860733671844002,-2.3426205260008572
1701290870869516500,11.7905166015625,2.7483132042348384,-3.8348078797370193,-1.5684014093667267
1701290870879591700,11.800591796875,3.011811580452323,-3.7397985227435826,-0.4657686690121889
1701290870889666600,11.81066650390625,2.879291115710139,-3.398435985600948,0.5939373682856559
1701290870899741700,11.82074169921875,2.3408891721636054,-2.917432338055968,1.668182803067565
1701290870909816800,11.83081689453125,1.4144794062860309,-2.6868758619755506,2.72594939673543
1701290870919891700,11.8408916015625,0.24109891288280486,-2.6783289829045533,3.6956019458815454
1701290870929966600,11.850966552734375,-1.1585539495408534,-2.5079478663235903,4.445878753653169
1701290870940040700,11.861040771484374,-2.5882991678893563,-2.0015794758975503,4.800667174080014
1701290870950115600,11.871115478515625,-3.723224989083409,-0.9822533797830343,4.916653852650523
1701290870960190500,11.8811904296875,-4.052848573115468,0.09505202709138393,4.983272396939992
1701290870970265600,11.891265625,-3.622857904449105,0.6107809510588645,5.024776958239078
1701290870980340700,11.9013408203125,-2.957496637418866,0.37096214111447334,4.252272536568343
1701290870990415600,11.91141552734375,-2.437780689641833,-0.28709610942602154,2.694348097552359
1701290871000490800,11.92149072265625,-2.087478474718332,-0.8140309025406837,1.3957894649937748
1701290871010565600,11.931565673828125,-1.8330068700432776,-0.9023106590181589,0.5430240503892302
1701290871020640500,11.941640625,-1.7307149548262357,-0.4710457326322794,-0.09064765465259551
1701290871030714600,11.951714599609375,-2.5896254480570553,0.29309271949231624,-0.3946946066185832
1701290871040789500,11.96178955078125,-4.448343097940087,1.8164888659626244,-0.35069501363337036
1701290871050864600,11.97186474609375,-5.518661714667082,4.104734827697277,0.9009501843199134
1701290871060939500,11.981939453125,-7.619492422911525,6.274156841608882,3.0633070821508763
1701290871071014700,11.9920146484375,-9.903289004021882,7.063209954759478,6.650898150646686
1701290871081089800,12.00208984375,-5.957474572214484,4.504161431273817,8.5414856875211
1701290871091164700,12.01216455078125,1.7723568787693977,0.9994453376024961,5.817890744957327
1701290871101239800,12.02223974609375,6.586660948535799,-0.7419698749363421,2.6591633869245648
1701290871111314400,12.032314453125,6.459590565893054,-0.6231617092043161,0.763604491378367
1701290871121389600,12.0423896484375,4.743488073787093,0.7654208931505679,-0.2296598195016384
1701290871131463400,12.05246337890625,0.8088117065876722,4.317138976493478,0.16755261515676975
1701290871141538600,12.06253857421875,-8.849595358881354,8.642543677029012,1.5803472832262515
1701290871151613700,12.07261376953125,-9.413241633799672,7.452271816188096,3.7835704444527622
1701290871161688600,12.0826884765625,-1.2611112376958131,2.306038808056712,2.272699433034658
1701290871171763700,12.092763671875,2.536971716234088,-0.24494331335127353,0.03146305975615978
1701290871181838600,12.102838623046875,1.6089695665985344,-1.3945476482391357,-1.0311024586260318
1701290871191913700,12.112913818359376,2.4974919387608767,-1.4995698652029037,-2.394813654574752
1701290871201988600,12.122988525390625,4.4885810003042215,-0.7866150723487139,-2.569333186134696
1701290871212063500,12.1330634765625,5.059888019108772,-0.14618892461061478,-2.8158032706618306
1701290871222137600,12.1431376953125,5.534958769473433,1.3001800962805747,-2.9503298145294186
1701290871232212500,12.15321240234375,5.9229807664603,3.9090363145083185,-2.026806271612644
1701290871242288400,12.163288330078124,5.429602205988765,5.755623966136574,-0.8586609023839235
1701290871252363500,12.173363525390625,4.284257866632938,5.262629436546564,-0.12566694558560848
1701290871262438700,12.183438720703125,2.8322429488092657,2.9717355906516314,-0.14958967296481132
1701290871272513300,12.19351318359375,1.0419336492419242,0.8874661411076784,-0.31322423789501186
1701290871282588400,12.20358837890625,-2.8446611163556574,-0.6106126087546349,0.2669108150094747
1701290871292663300,12.213663330078125,-4.886599490648508,-1.2673147685110568,1.2587848405748605
1701290871302738400,12.223738525390624,-2.67999428576827,-1.1287287201195955,1.0060387445181607
1701290871312812300,12.233812255859375,-0.3343991278707981,-0.7567553561359643,0.465223894611001
1701290871322887400,12.243887451171876,0.18011808221936224,-0.5806763201743363,0.1365536657810211
1701290871332962600,12.253962646484375,-0.128489601790905,-0.7005418860048055,-0.43748307024836536
1701290871343037400,12.264037353515626,-0.39102176332473754,-0.8145254080593586,-1.0443728590875863
1701290871353112600,12.274112548828125,-0.4820996626207605,-0.8436807753950357,-1.5341270915821195
1701290871363187200,12.284187255859376,-0.70825465233922,-0.7990332398951053,-1.786725888122618
1701290871373262300,12.294262451171875,-0.8597007668256759,-0.8572609724581242,-2.110518866305053
1701290871383337500,12.30433740234375,-0.5494446945538743,-0.936671193781495,-1.99827020521909
1701290871393412400,12.314412353515625,-0.3731330554127693,-0.8593494691699742,-1.3746011310145259
1701290871403486500,12.324486572265625,-0.8592425016641616,-0.977874726307392,-0.7156532381579279
1701290871413561300,12.334561279296874,-1.854414399731159,-1.5431430494695901,0.07868307609260082
1701290871423636500,12.344636474609375,-2.9698844098269936,-2.2697417522728442,0.7205179215848445
1701290871433711600,12.354711669921874,-3.1223452543139456,-2.7763872060745953,0.7897513245478271
1701290871443786500,12.364786376953125,-2.4696622670710084,-2.976601150861382,0.27958178827315566
1701290871453861400,12.374861328125,-1.8824118292033671,-3.019168957477808,-0.40427462812960147
1701290871463936300,12.384936279296875,-1.78637722081542,-3.07433145725131,-0.9953644980296492
1701290871474011400,12.395011474609374,-1.5388964979410171,-2.916363832041621,-1.2632438658103347
1701290871484086500,12.40508642578125,-1.1130594418227673,-2.366922023564577,-1.195476151485741
1701290871494160400,12.415160400390626,-0.7540893517971038,-1.5659195294231176,-0.7923731974840164
1701290871504235500,12.425235595703125,-0.353364525103569,-0.757089702656865,-0.1725520308792591
1701290871514310400,12.435310302734376,0.5017699567198753,-0.27340251511633396,0.2200263142377138
1701290871524385500,12.445385498046875,1.4574655844449995,-0.5622095201134681,-0.011291793864965437
1701290871534460400,12.45546044921875,1.4049346022188662,-1.341577105551958,-0.463218984529376
1701290871544535300,12.465535400390625,0.7025508877396583,-2.003086957851052,-0.747675100840628
1701290871554610400,12.4756103515625,-0.04576689948525745,-2.307983512383699,-0.2470394088476896
1701290871564685300,12.485685302734375,-0.7028805580854416,-1.8709265585929153,0.8984551526337862
1701290871574760400,12.495760498046875,-0.6226157657593488,-0.5979015957415104,1.6135767681330442
1701290871584834300,12.505834228515624,0.06442308463838417,0.7724398320019245,1.251122343122959
1701290871594909400,12.515909423828125,0.40450142262279987,1.3325900814980267,0.4757227845326066
1701290871604984600,12.525984619140624,0.6170522864133119,0.8608873462617397,0.05647212106734514
1701290871615059500,12.5360595703125,0.15851649126410483,-0.2049164233893156,-0.02381517535150051
1701290871625134600,12.546134521484374,-1.2585270664215087,-1.3244517832279206,0.3116398913130164
1701290871635209200,12.556209228515625,-3.8653392116010186,-1.9645254642665384,1.5420719131067395
1701290871645284400,12.566284423828124,-3.856444542005658,-1.7528852855801582,3.16914909106493
1701290871655359500,12.576359375,-1.3563912283241748,-0.44979310124516486,4.220016572868824
1701290871665434400,12.586434326171876,-1.7572154237389563,1.1830442476749419,4.695390690094232
1701290871675508500,12.596508544921875,-2.8837118547618386,2.272593050050735,4.759871637833118
1701290871685583400,12.606583251953126,-2.595176652443409,2.0816724187880755,3.8771863012611862
1701290871695658500,12.616658447265625,-2.0371686756730076,1.9330010297119615,3.065310530927777
1701290871705733600,12.626733642578126,-1.9076836331039666,2.7261510567873715,1.6894687522023915
1701290871715808500,12.63680859375,-1.3042653197675942,3.4252468356370924,-0.21025135467648504
1701290871725883400,12.64688330078125,0.06506269314959645,4.218174744394421,-1.2745441352427005
1701290871735958300,12.656958251953125,0.8795524453736842,5.921279223239422,-1.318589028674364
1701290871746033400,12.667033447265625,0.42163960442841053,8.41220464309156,-0.9162392311275005
