time,seconds_elapsed,z,y,x
1701290859102018800,0.023018798828125,-0.00265529565513134,-0.013497419655323029,-0.011416038498282433
1701290859112093700,0.03309375,-0.008478563278913498,-0.026587123051285744,-0.023505723103880882
1701290859122168800,0.0431689453125,-0.021467549726366997,-0.03475988283753395,-0.0266361553221941
1701290859132244000,0.053243896484375,-0.03261234983801842,-0.04126971587538719,-0.024376729503273964
1701290859142318800,0.06331884765625,-0.027555115520954132,-0.03641265630722046,-0.0167818795889616
1701290859152393700,0.073393798828125,-0.01972595416009426,-0.03142961487174034,-0.012034262530505657
1701290859162468600,0.083468505859375,-0.004249276127666235,-0.015676870942115784,-0.0036506219767034054
1701290859172543700,0.093543701171875,0.0049482169561088085,-0.0030542872846126556,0.010667863301932812
1701290859182619000,0.103618896484375,0.007147627882659435,0.014311081729829311,0.012335183098912239
1701290859192693800,0.11369384765625,0.0011861416278406978,0.030443713068962097,-0.0028538897167891264
1701290859202769000,0.123768798828125,0.0005223577609285712,0.04553157091140747,-0.018485913053154945
1701290859212843800,0.13384375,0.0021868334151804447,0.04750683903694153,-0.03019050508737564
1701290859222918700,0.143918701171875,0.005258115008473396,0.03329169750213623,-0.03566776216030121
1701290859232994300,0.153994384765625,0.004900985397398472,0.034404631704092026,-0.03075183369219303
1701290859243068200,0.164068115234375,0.005965937860310078,0.030099008232355118,-0.030517978593707085
1701290859253143300,0.174143310546875,0.0103423111140728,0.0376991368830204,-0.03703819587826729
1701290859263218200,0.18421826171875,0.021858006715774536,0.050852566957473755,-0.045564666390419006
1701290859273293300,0.194293212890625,0.028702862560749054,0.07052667438983917,-0.053016189485788345
1701290859283368400,0.204368408203125,0.03885253146290779,0.0905667319893837,-0.07122493535280228
1701290859293443300,0.214443359375,0.04583960026502609,0.10943043231964111,-0.09032273292541504
1701290859303518200,0.224518310546875,0.047452379018068314,0.14073193073272705,-0.09527565538883209
1701290859313593000,0.234593017578125,0.034095827490091324,0.17575302720069885,-0.08366400748491287
1701290859323668200,0.244668212890625,-0.013859698548913002,0.23413416743278503,-0.06184021383523941
1701290859333743400,0.254743408203125,-0.05337461829185486,0.3135773241519928,-0.024066472426056862
1701290859343818200,0.264818359375,-0.05797060579061508,0.3535117208957672,0.0013106102123856544
1701290859353893400,0.274893310546875,-0.07444785535335541,0.4269060492515564,0.006538928020745516
1701290859363968300,0.28496826171875,-0.10582616180181503,0.5153053998947144,-0.003571431152522564
1701290859374043100,0.295043212890625,-0.13735425472259521,0.616421639919281,-0.01742705889046192
1701290859384118300,0.3051181640625,-0.14881204068660736,0.7398228049278259,-0.04453360661864281
1701290859394193200,0.315193115234375,-0.2270226925611496,0.7789337038993835,-0.07786653190851212
1701290859404268300,0.325268310546875,-0.2997364103794098,0.8114744424819946,-0.09660780429840088
1701290859414342100,0.335342041015625,-0.3125057518482208,0.8220043182373047,-0.10357996076345444
1701290859424417300,0.345417236328125,-0.28304123878479004,0.8512498736381531,-0.09702902287244797
1701290859434492400,0.355492431640625,-0.019422385841608047,1.1288700103759766,-0.034874580800533295
1701290859444567300,0.3655673828125,0.21317479014396667,1.315554141998291,-0.06570446491241455
1701290859454642200,0.37564208984375,0.2157932072877884,1.3879748582839966,-0.20742963254451752
1701290859464717000,0.385717041015625,0.1087241992354393,1.4400534629821777,-0.34837594628334045
1701290859474792200,0.395792236328125,0.04808135703206062,1.4120604991912842,-0.44963333010673523
1701290859484867300,0.405867431640625,0.10607180744409561,1.2690386772155762,-0.45734044909477234
1701290859494942200,0.415942138671875,0.12432165443897247,1.0386565923690796,-0.3595835268497467
1701290859505017300,0.426017333984375,-0.010835976339876652,0.6479358673095703,-0.2501661777496338
1701290859515092500,0.436092529296875,-0.22831663489341736,0.2306790053844452,-0.21873527765274048
1701290859525167000,0.4461669921875,-0.40827125310897827,-0.09887342154979706,-0.27268943190574646
1701290859535242200,0.4562421875,-0.46253713965415955,-0.29960545897483826,-0.328049898147583
1701290859545317000,0.466317138671875,-0.45123615860939026,-0.3351278007030487,-0.3532834053039551
1701290859555392300,0.476392333984375,-0.45620933175086975,-0.24406445026397705,-0.33951857686042786
1701290859565467400,0.48646728515625,-0.4784013330936432,-0.07768679410219193,-0.3239113688468933
1701290859575542300,0.496542236328125,-0.4644239842891693,0.03308472782373428,-0.3171192407608032
1701290859585617400,0.506617431640625,-0.42636486887931824,0.10111211240291595,-0.3067238926887512
1701290859595691300,0.516691162109375,-0.40075087547302246,0.15787287056446075,-0.3122025430202484
1701290859605766400,0.526766357421875,-0.3891599178314209,0.20808733999729156,-0.3384608328342438
1701290859615841000,0.536841064453125,-0.4015185832977295,0.2066953182220459,-0.36455047130584717
1701290859625916200,0.546916259765625,-0.4530377984046936,0.11780936270952225,-0.37169039249420166
1701290859635991300,0.5569912109375,-0.5273706316947937,-0.006640949286520481,-0.3663579225540161
1701290859646066200,0.567066162109375,-0.5815035700798035,-0.11276865005493164,-0.3830312490463257
1701290859656141300,0.577141357421875,-0.5875753164291382,-0.16853125393390656,-0.4275291860103607
1701290859666216400,0.587216552734375,-0.6028167009353638,-0.16584253311157227,-0.4693344831466675
1701290859676291300,0.597291259765625,-0.6456999778747559,-0.11808300018310547,-0.49589207768440247
1701290859686366200,0.6073662109375,-0.7087469100952148,-0.0761769488453865,-0.48838645219802856
1701290859696441000,0.617441162109375,-0.7791762948036194,-0.07622914761304855,-0.44691571593284607
1701290859706516200,0.62751611328125,-0.853569507598877,-0.13692666590213776,-0.4010868966579437
1701290859716591400,0.63759130859375,-0.9294602870941162,-0.24863028526306152,-0.3722573518753052
1701290859726666200,0.647666259765625,-0.9990503191947937,-0.33788564801216125,-0.36043208837509155
1701290859736741400,0.657741455078125,-1.0657610893249512,-0.38105708360671997,-0.36063235998153687
1701290859746816300,0.667816162109375,-1.1441221237182617,-0.3685436546802521,-0.36457547545433044
1701290859756891100,0.67789111328125,-1.1891117095947266,-0.3232075870037079,-0.3544280230998993
1701290859766966300,0.68796630859375,-1.223739504814148,-0.3137784004211426,-0.3631080985069275
1701290859777040100,0.6980400390625,-1.2581605911254883,-0.27698707580566406,-0.3727807104587555
1701290859787115300,0.708115234375,-1.3250666856765747,-0.257499098777771,-0.401620477437973
1701290859797190100,0.718190185546875,-1.4083788394927979,-0.28063106536865234,-0.434384822845459
1701290859807265300,0.728265380859375,-1.503152847290039,-0.33935606479644775,-0.43887394666671753
1701290859817340400,0.73834033203125,-1.593625783920288,-0.4188348948955536,-0.43377479910850525
1701290859827415300,0.748415283203125,-1.6830424070358276,-0.4799911379814148,-0.42506152391433716
1701290859837490400,0.758490478515625,-1.7783896923065186,-0.4393869936466217,-0.4202542304992676
1701290859847565000,0.76856494140625,-1.9291911125183105,-0.49471694231033325,-0.3972862958908081
1701290859857640200,0.77864013671875,-2.017426013946533,-0.6755873560905457,-0.3654250502586365
1701290859867715300,0.78871533203125,-2.0831289291381836,-0.7847239971160889,-0.3289705514907837
1701290859877790200,0.798790283203125,-2.1102404594421387,-0.8136371374130249,-0.29548555612564087
1701290859887865300,0.808865234375,-2.0992140769958496,-0.7475458979606628,-0.24540992081165314
1701290859897940200,0.818940185546875,-2.0704457759857178,-0.677973747253418,-0.15529893338680267
1701290859908015400,0.829015380859375,-2.0040578842163086,-0.7577769756317139,-0.0942368358373642
1701290859918090200,0.83909033203125,-1.8996742963790894,-0.708070695400238,-0.023621520027518272
1701290859928165000,0.8491650390625,-1.7500946521759033,-0.6447476744651794,0.027274513617157936
1701290859938240300,0.859240234375,-1.5927265882492065,-0.5986372232437134,0.0963960587978363
1701290859948315100,0.869315185546875,-1.3514052629470825,-0.566315770149231,0.20530948042869568
1701290859958389200,0.87938916015625,-1.1491237878799438,-0.5576692819595337,0.2916465103626251
1701290859968464400,0.88946435546875,-0.8772733807563782,-0.522139847278595,0.33695822954177856
1701290859978539300,0.899539306640625,-0.5453604459762573,-0.4672536551952362,0.33834201097488403
1701290859988614400,0.909614501953125,-0.20717597007751465,-0.39015504717826843,0.31123021245002747
1701290859998689300,0.919689208984375,0.09829740226268768,-0.31571412086486816,0.25422629714012146
1701290860008764200,0.92976416015625,0.34760957956314087,-0.32494354248046875,0.19951866567134857
1701290860018839300,0.93983935546875,0.5158110857009888,-0.38085952401161194,0.17192485928535461
1701290860028914200,0.9499140625,0.5342128872871399,-0.41726186871528625,0.1602811962366104
1701290860038989300,0.9599892578125,0.6578341722488403,-0.3164002299308777,0.04770777374505997
1701290860049064200,0.970064208984375,0.6598833203315735,-0.19612480700016022,-0.12590068578720093
1701290860059139300,0.980139404296875,0.6314306259155273,-0.11675328761339188,-0.2552744150161743
1701290860069214500,0.99021435546875,0.6528657674789429,-0.17846539616584778,-0.3234924077987671
1701290860079289000,1.0002890625,0.7318904995918274,-0.3837841749191284,-0.3307010531425476
1701290860089364200,1.0103642578125,0.8182620406150818,-0.6490557789802551,-0.29493552446365356
1701290860099439000,1.020439208984375,0.8545255064964294,-0.9151886701583862,-0.23195308446884155
1701290860109514200,1.03051416015625,0.8159305453300476,-1.1215755939483643,-0.17085637152194977
1701290860119589400,1.04058935546875,0.7213795185089111,-1.2301231622695923,-0.1386137455701828
1701290860129663200,1.050663330078125,0.6062946319580078,-1.1565399169921875,-0.14399418234825134
1701290860139738400,1.06073828125,0.49265167117118835,-0.7981228828430176,-0.20715424418449402
1701290860149813200,1.070813232421875,0.432504802942276,-0.29227590560913086,-0.2707906663417816
1701290860159888400,1.080888427734375,0.42212966084480286,0.11890579015016556,-0.2694564163684845
1701290860169963300,1.09096337890625,0.4159141778945923,0.32637152075767517,-0.18749168515205383
1701290860180038100,1.1010380859375,0.374386727809906,0.4038809835910797,-0.06300728023052216
1701290860190113300,1.11111328125,0.25179532170295715,0.44779741764068604,0.012602774426341057
1701290860200188200,1.121188232421875,0.1264967918395996,0.47580987215042114,0.004165614489465952
1701290860210263300,1.13126318359375,0.15170572698116302,0.4417093098163605,-0.034368984401226044
1701290860220338400,1.14133837890625,0.14368188381195068,0.3507317304611206,-0.0490693673491478
1701290860230413300,1.151413330078125,0.07619352638721466,0.18793894350528717,-0.06568610668182373
1701290860240488200,1.16148828125,0.0023571185301989317,-0.01947629451751709,-0.0842406153678894
1701290860250563000,1.17156298828125,-0.052797213196754456,-0.1774117350578308,-0.1340644806623459
1701290860260638200,1.18163818359375,-0.09509726613759995,-0.2244546115398407,-0.18098512291908264
1701290860270713300,1.19171337890625,-0.1013374999165535,-0.2160942405462265,-0.18257200717926025
1701290860280787200,1.201787109375,-0.07631178200244904,-0.16624519228935242,-0.14547178149223328
1701290860290862300,1.2118623046875,-0.06467413157224655,-0.11406310647726059,-0.10503243654966354
1701290860300937200,1.221937255859375,-0.06686005741357803,-0.07617351412773132,-0.09965657442808151
1701290860311012400,1.232012451171875,-0.060270026326179504,-0.02278103679418564,-0.13507942855358124
1701290860321087500,1.24208740234375,-0.0470610111951828,0.013198534958064556,-0.1605301946401596
1701290860331162000,1.252162109375,-0.045799002051353455,0.016180410981178284,-0.14644590020179749
1701290860341237200,1.2622373046875,-0.056036461144685745,0.00008666142821311951,-0.12126864492893219
1701290860351312100,1.27231201171875,-0.058336291462183,-0.013927238062024117,-0.10824063420295715
1701290860361387300,1.28238720703125,-0.057524826377630234,0.004193441942334175,-0.11181086301803589
1701290860371462400,1.29246240234375,-0.051371246576309204,0.03656940907239914,-0.11464304476976395
1701290860381537300,1.302537353515625,-0.043200667947530746,0.06162496656179428,-0.11082140356302261
1701290860391612400,1.3126123046875,-0.04222380369901657,0.07642880082130432,-0.09873039275407791
1701290860401687000,1.32268701171875,-0.040557198226451874,0.06799349933862686,-0.07824908941984177
1701290860411762200,1.33276220703125,-0.034763727337121964,0.04264017939567566,-0.06568272411823273
1701290860421837300,1.34283740234375,-0.02937695011496544,0.028357381001114845,-0.06894242763519287
1701290860431912200,1.352912109375,-0.016794078052043915,0.02815261110663414,-0.07201169431209564
1701290860441986300,1.362986328125,0.0003406996838748455,0.03194202482700348,-0.06510399281978607
1701290860452061200,1.373061279296875,0.0074790059588849545,0.04753565788269043,-0.05103608965873718
1701290860462136300,1.38313623046875,0.010518205352127552,0.06660975515842438,-0.03467496111989021
1701290860472211500,1.39321142578125,0.016342993825674057,0.0750240832567215,-0.015010806731879711
1701290860482286300,1.403286376953125,0.02495965175330639,0.08205189555883408,-0.0003413168014958501
1701290860492361200,1.413361328125,0.031170956790447235,0.09924431890249252,0.005202574655413628
1701290860502436000,1.42343603515625,0.03725840896368027,0.11878419667482376,0.012218140065670013
1701290860512511200,1.43351123046875,0.039386086165905,0.11723124235868454,0.02921266481280327
1701290860522586400,1.44358642578125,0.03821296617388725,0.10264084488153458,0.04764547199010849
1701290860532661200,1.4536611328125,0.04591178894042969,0.06900309026241302,0.06079741567373276
1701290860542736400,1.463736328125,0.04876669496297836,0.04250836744904518,0.06407896429300308
1701290860552811300,1.473811279296875,0.05574646592140198,0.0326065756380558,0.05809929221868515
1701290860562886100,1.48388623046875,0.06099475547671318,0.02506956458091736,0.05245445668697357
1701290860572961300,1.493961181640625,0.06310291588306427,-0.004046898800879717,0.04455963522195816
1701290860583036200,1.5040361328125,0.0573883056640625,-0.05415906757116318,0.040073007345199585
1701290860593110300,1.5141103515625,0.06703399121761322,-0.10569241642951965,0.04921191930770874
1701290860603185200,1.52418505859375,0.08093755692243576,-0.13135437667369843,0.04519720375537872
1701290860613260300,1.53426025390625,0.08980147540569305,-0.1268799751996994,0.042287230491638184
1701290860623335400,1.54433544921875,0.08813060820102692,-0.10530651360750198,0.04164940491318703
1701290860633410300,1.554410400390625,0.07304446399211884,-0.06635898351669312,0.030797235667705536
1701290860643485200,1.564485107421875,0.048860300332307816,-0.04463664069771767,0.025087684392929077
1701290860653560000,1.57456005859375,0.03206253796815872,-0.06092626228928566,0.027958787977695465
1701290860663635200,1.58463525390625,0.021187784150242805,-0.0782242938876152,0.024221306666731834
1701290860673710300,1.59471044921875,0.013407422229647636,-0.0673646554350853,0.01585003361105919
1701290860683785200,1.60478515625,0.006438995245844126,-0.045518212020397186,0.008930343203246593
1701290860693860400,1.6148603515625,-0.0007140998495742679,-0.028581853955984116,0.017241310328245163
1701290860703935200,1.624935302734375,-0.008407971821725368,-0.023122373968362808,0.02113218791782856
1701290860714010000,1.635010009765625,-0.015329589135944843,-0.027848899364471436,0.01360427588224411
1701290860724085200,1.645085205078125,-0.014094947837293148,-0.03622853383421898,0.008755192160606384
1701290860734160100,1.65516015625,-0.0032566525042057037,-0.05764875188469887,0.008287901990115643
1701290860744235300,1.6652353515625,0.012824046425521374,-0.07811940461397171,0.007447673939168453
1701290860754309000,1.67530908203125,0.023203719407320023,-0.08345865458250046,0.015976596623659134
1701290860764384300,1.68538427734375,0.028979316353797913,-0.07746680825948715,0.02077321521937847
1701290860774459400,1.69545947265625,0.03539199009537697,-0.06943488866090775,0.026427606120705605
1701290860784534300,1.7055341796875,0.04085679352283478,-0.06741754710674286,0.03464878350496292
1701290860794609400,1.715609375,0.05015883967280388,-0.09422828257083893,0.04064348712563515
1701290860804684300,1.725684326171875,0.05461004748940468,-0.12448897957801819,0.04703826829791069
1701290860814759200,1.73575927734375,0.05601298436522484,-0.12386897206306458,0.05461988225579262
1701290860824834300,1.745834228515625,0.0631965920329094,-0.10200256109237671,0.06121626868844032
1701290860834909200,1.7559091796875,0.07976195961236954,-0.07887950539588928,0.05385226383805275
1701290860844984300,1.765984375,0.09303142875432968,-0.06185978278517723,0.04097028821706772
1701290860855059200,1.77605908203125,0.10353472828865051,-0.07700496912002563,0.033197540789842606
1701290860865134300,1.78613427734375,0.11016040295362473,-0.1372605860233307,0.028385477140545845
1701290860875209200,1.796209228515625,0.11457085609436035,-0.19631338119506836,0.01261957362294197
1701290860885284000,1.8062841796875,0.12421175837516785,-0.21507561206817627,-0.0016043689101934433
1701290860895358200,1.816358154296875,0.1345488578081131,-0.19773872196674347,-0.019855031743645668
1701290860905433000,1.82643310546875,0.14196017384529114,-0.1819688230752945,-0.031996116042137146
1701290860915508200,1.83650830078125,0.14887216687202454,-0.18296527862548828,-0.04796164110302925
1701290860925583400,1.846583251953125,0.1485549807548523,-0.18908415734767914,-0.05133426934480667
1701290860935658200,1.856658203125,0.14063520729541779,-0.19547581672668457,-0.044686589390039444
1701290860945733400,1.8667333984375,0.12585707008838654,-0.1990463137626648,-0.044392578303813934
1701290860955808300,1.876808349609375,0.09609360992908478,-0.1532512903213501,-0.046234291046857834
1701290860965883100,1.886883056640625,0.07923952490091324,-0.08160400390625,-0.055865343660116196
1701290860975958300,1.896958251953125,0.07407131791114807,-0.03675869107246399,-0.07081323117017746
1701290860986033200,1.907033203125,0.07547587156295776,-0.03543270379304886,-0.07639042288064957
1701290860996108300,1.9171083984375,0.08169210702180862,-0.05338988080620766,-0.08020749688148499
1701290861006183200,1.92718310546875,0.09512323141098022,-0.07436972856521606,-0.08758977800607681
1701290861016258300,1.93725830078125,0.10774116218090057,-0.09477567672729492,-0.09496786445379257
1701290861026333400,1.94733349609375,0.11671335250139236,-0.1217295303940773,-0.09141334146261215
1701290861036408000,1.957407958984375,0.13085822761058807,-0.1354656219482422,-0.08147524297237396
1701290861046482400,1.967482421875,0.14114601910114288,-0.12689609825611115,-0.0688028559088707
1701290861056557000,1.97755712890625,0.15006664395332336,-0.11723558604717255,-0.05375176668167114
1701290861066632200,1.987632080078125,0.16642430424690247,-0.11064532399177551,-0.050210826098918915
1701290861076707300,1.997707275390625,0.19844184815883636,-0.1044267937541008,-0.05931496247649193
1701290861086782200,2.0077822265625,0.22108936309814453,-0.1216806098818779,-0.07931210845708847
1701290861096857300,2.017857421875,0.21927820146083832,-0.17665082216262817,-0.10216419398784637
1701290861106932200,2.02793212890625,0.2014499306678772,-0.2485859990119934,-0.12108222395181656
1701290861117007400,2.03800732421875,0.18559353053569794,-0.35166025161743164,-0.14636801183223724
1701290861127082200,2.048082275390625,0.1674073338508606,-0.46778446435928345,-0.16188199818134308
1701290861137157000,2.0581572265625,0.14803017675876617,-0.5133075714111328,-0.13949401676654816
1701290861147232300,2.068232177734375,0.12357249110937119,-0.40681976079940796,-0.07837420701980591
1701290861157307100,2.07830712890625,0.11072460561990738,-0.21239076554775238,-0.012081318534910679
1701290861167382300,2.08838232421875,0.10392449051141739,-0.11583999544382095,0.03421613946557045
1701290861177457400,2.09845751953125,0.09457637369632721,-0.16826629638671875,0.03674248978495598
1701290861187532300,2.1085322265625,0.0782136470079422,-0.26829034090042114,0.0019589406438171864
1701290861197606400,2.1186064453125,0.04799149930477142,-0.33509862422943115,-0.04545220360159874
1701290861207681300,2.128681396484375,0.018582476302981377,-0.39090222120285034,-0.09262877702713013
1701290861217756200,2.138756103515625,0.0013745864853262901,-0.4339176118373871,-0.12835554778575897
1701290861227831300,2.148831298828125,-0.012335100211203098,-0.4344872534275055,-0.1424812227487564
1701290861237906200,2.15890625,-0.01373247615993023,-0.37074407935142517,-0.12265610694885254
1701290861247981000,2.16898095703125,0.003977278713136911,-0.26747602224349976,-0.10316043347120285
1701290861258056200,2.17905615234375,0.04461301118135452,-0.18003422021865845,-0.07768258452415466
1701290861268131000,2.189131103515625,0.09079834818840027,-0.11677002906799316,-0.04515792429447174
1701290861278206200,2.199206298828125,0.1262168437242508,-0.07376094162464142,-0.047858141362667084
1701290861288281000,2.209281005859375,0.1334875375032425,-0.008790997788310051,-0.0823921486735344
1701290861298356000,2.21935595703125,0.13472959399223328,0.10271625965833664,-0.11129753291606903
1701290861308431000,2.22943115234375,0.13909557461738586,0.22275450825691223,-0.11304536461830139
1701290861318506200,2.23950634765625,0.15216542780399323,0.2945192754268646,-0.09724263846874237
1701290861328581000,2.2495810546875,0.1651051938533783,0.35698211193084717,-0.08230923116207123
1701290861338655200,2.2596552734375,0.15715545415878296,0.4494982659816742,-0.0585864819586277
1701290861348730000,2.269730224609375,0.1414225697517395,0.5258486866950989,-0.04600197821855545
1701290861358805200,2.27980517578125,0.15522414445877075,0.5607140064239502,-0.04446789622306824
1701290861368880000,2.289880126953125,0.17849938571453094,0.549296498298645,-0.047465015202760696
1701290861378955000,2.299955078125,0.19396311044692993,0.43631377816200256,-0.019614389166235924
1701290861389030100,2.310030029296875,0.20564612746238708,0.2582172751426697,0.0470232255756855
1701290861399105000,2.32010498046875,0.21511535346508026,0.04872003197669983,0.08657620847225189
1701290861409180200,2.33018017578125,0.22039692103862762,-0.15985554456710815,0.10035514086484909
1701290861419255000,2.340255126953125,0.23050640523433685,-0.30622899532318115,0.09321020543575287
1701290861429330200,2.350330078125,0.26161321997642517,-0.37572500109672546,0.09532821923494339
1701290861439405300,2.3604052734375,0.29891589283943176,-0.4263831675052643,0.15258309245109558
1701290861449480000,2.37047998046875,0.3253893256187439,-0.4474301338195801,0.22583892941474915
1701290861459555000,2.38055517578125,0.33139052987098694,-0.37601029872894287,0.27788665890693665
1701290861469630200,2.390630126953125,0.3263861835002899,-0.25920432806015015,0.32619133591651917
1701290861479705000,2.400705078125,0.3129456341266632,-0.25235071778297424,0.38633713126182556
1701290861489779200,2.410779296875,0.29281240701675415,-0.38402673602104187,0.43018102645874023
1701290861499854000,2.42085400390625,0.26192164421081543,-0.4771725535392761,0.4861375093460083
1701290861509929200,2.43092919921875,0.24666064977645874,-0.41455575823783875,0.5853279829025269
1701290861520004000,2.441004150390625,0.2553078830242157,-0.23397952318191528,0.7068153023719788
1701290861530079200,2.451079345703125,0.2535693645477295,-0.09432470053434372,0.7651393413543701
1701290861540154000,2.461154052734375,0.21798913180828094,-0.0397900715470314,0.747880756855011
1701290861550229000,2.47122900390625,0.1753673553466797,0.007782239466905594,0.7404971718788147
1701290861560304000,2.48130419921875,0.15151500701904297,0.05052943527698517,0.7928040027618408
1701290861570379000,2.49137890625,0.1499868929386139,-0.010567739605903625,0.8480920195579529
1701290861580454100,2.5014541015625,0.15526016056537628,-0.12638628482818604,0.8594458103179932
1701290861590529300,2.511529296875,0.1557142287492752,-0.16537310183048248,0.8772999048233032
1701290861600604200,2.521604248046875,0.14811566472053528,-0.10234697163105011,0.9376080632209778
1701290861610679000,2.531678955078125,0.10899143666028976,0.10074089467525482,0.9038085341453552
1701290861620754200,2.541754150390625,0.009404392912983894,0.28267794847488403,0.6454137563705444
1701290861630828000,2.551828125,-0.13805115222930908,0.3651879131793976,0.3782414495944977
1701290861640903200,2.561903076171875,-0.2768494486808777,0.3377876579761505,0.29232996702194214
1701290861650978000,2.57197802734375,-0.32502123713493347,0.30578044056892395,0.4581117331981659
1701290861661053200,2.58205322265625,-0.24855728447437286,0.3515143096446991,0.7583131790161133
1701290861671128000,2.592128173828125,-0.08184553682804108,0.5926123857498169,1.0510989427566528
1701290861681203200,2.602203125,0.07060367614030838,0.8281765580177307,1.099805235862732
1701290861691278300,2.6122783203125,0.1329197883605957,0.7931213974952698,0.8748149871826172
1701290861701353000,2.62235302734375,0.12791478633880615,0.5480034947395325,0.7223135232925415
1701290861711428000,2.632427978515625,0.08344131708145142,0.31140080094337463,0.7857953310012817
1701290861721503000,2.6425029296875,0.033927857875823975,0.21348221600055695,0.8919944763183594
1701290861731578000,2.652578125,0.020201662555336952,0.24581806361675262,0.9777120351791382
1701290861741653200,2.6626533203125,0.03736750781536102,0.2859245240688324,1.107619285583496
1701290861751728000,2.67272802734375,0.12104296684265137,0.3703824281692505,1.2742722034454346
1701290861761803300,2.68280322265625,0.2520265579223633,0.35747048258781433,1.2491893768310547
1701290861771877000,2.692877197265625,0.31176313757896423,0.1741240918636322,1.1173768043518066
1701290861781952300,2.7029521484375,0.27829816937446594,-0.017769113183021545,1.1471768617630005
1701290861792027100,2.713027099609375,0.25545811653137207,-0.14453823864459991,1.2833436727523804
1701290861802102000,2.72310205078125,0.3192582428455353,-0.2006777822971344,1.405051350593567
1701290861812177200,2.73317724609375,0.46390196681022644,-0.22105495631694794,1.4503616094589233
1701290861822252000,2.743251953125,0.6687248349189758,-0.20355622470378876,1.4034621715545654
1701290861832327200,2.7533271484375,0.9030478596687317,-0.09438686072826385,1.3501213788986206
1701290861842402300,2.76340234375,1.1555968523025513,0.08713899552822113,1.3085036277770996
1701290861852477200,2.773477294921875,1.3500001430511475,0.21452437341213226,1.2231075763702393
1701290861862552000,2.783552001953125,1.457283616065979,0.252308189868927,1.0742406845092773
1701290861872627000,2.793626953125,1.4056838750839233,0.3503503203392029,0.9132884740829468
1701290861882702000,2.8037021484375,1.1489008665084839,0.4983566701412201,0.7828289270401001
1701290861892777200,2.813777099609375,0.8653069734573364,0.3788640797138214,0.6591642498970032
1701290861902851000,2.82385107421875,0.7423655390739441,0.02056378871202469,0.5344738364219666
1701290861912926200,2.83392626953125,0.7181792855262756,-0.3410641849040985,0.3851562440395355
1701290861923001000,2.8440009765625,0.6767795085906982,-0.5829811692237854,0.20302382111549377
1701290861933076200,2.854076171875,0.567639172077179,-0.6202846169471741,0.04652101919054985
1701290861943151400,2.8641513671875,0.464591920375824,-0.5034281015396118,-0.04303590580821037
1701290861953226000,2.87422607421875,0.41829365491867065,-0.2876068651676178,-0.06446956098079681
1701290861963301000,2.884301025390625,0.4223041534423828,-0.07081601768732071,-0.024984516203403473
1701290861973376000,2.8943759765625,0.4480355978012085,0.042817600071430206,0.022794459015130997
1701290861983451100,2.904451171875,0.4297044575214386,0.02854366973042488,0.0030160327441990376
1701290861993526300,2.9145263671875,0.36880409717559814,-0.08867962658405304,-0.10491815954446793
1701290862003601200,2.92460107421875,0.28047826886177063,-0.22808575630187988,-0.2662639319896698
1701290862013676300,2.93467626953125,0.19939938187599182,-0.33164727687835693,-0.40993639826774597
1701290862023751000,2.9447509765625,0.12534576654434204,-0.4135688841342926,-0.524219810962677
1701290862033826000,2.954825927734375,0.044872500002384186,-0.49227115511894226,-0.6099594831466675
1701290862043900000,2.96489990234375,-0.03951399028301239,-0.5374823212623596,-0.6686930656433105
1701290862053975000,2.97497509765625,-0.13287191092967987,-0.5349307656288147,-0.7104732990264893
1701290862064050200,2.98505029296875,-0.23851355910301208,-0.49157220125198364,-0.7412737011909485
1701290862074125000,2.995125,-0.3571541905403137,-0.4457722306251526,-0.7677732706069946
1701290862084200200,3.0052001953125,-0.4683879315853119,-0.39310967922210693,-0.7706755995750427
1701290862094275300,3.015275390625,-0.5507355332374573,-0.319404274225235,-0.735536515712738
1701290862104350200,3.02535009765625,-0.6209387183189392,-0.24683354794979095,-0.6890491843223572
1701290862114425000,3.035425048828125,-0.6907109022140503,-0.15827013552188873,-0.6794594526290894
1701290862124500000,3.0455,-0.7309283018112183,-0.03189093619585037,-0.7101710438728333
1701290862134575000,3.0555751953125,-0.7532588839530945,0.1605517417192459,-0.780864417552948
1701290862144650200,3.065650146484375,-0.7805207967758179,0.40076300501823425,-0.8322879672050476
1701290862154725000,3.07572509765625,-0.8127972483634949,0.6078458428382874,-0.828819751739502
1701290862164800300,3.08580029296875,-0.8479506373405457,0.7436756491661072,-0.7668489217758179
1701290862174874000,3.0958740234375,-0.8772616982460022,0.8001669049263,-0.6750873327255249
1701290862184949200,3.10594921875,-0.8880107998847961,0.7869438529014587,-0.5945741534233093
1701290862195024100,3.116024169921875,-0.8901098966598511,0.707059383392334,-0.5474916100502014
1701290862205099000,3.12609912109375,-0.8559272885322571,0.5626959800720215,-0.5488539338111877
1701290862215174100,3.136174072265625,-0.7678735852241516,0.37572526931762695,-0.5245656371116638
1701290862225249000,3.1462490234375,-0.6277028918266296,0.1756954789161682,-0.4559412896633148
1701290862235323600,3.15632373046875,-0.4155440330505371,-0.011313823983073235,-0.37613195180892944
1701290862245398800,3.166398681640625,-0.1770145148038864,-0.11064056307077408,-0.28259244561195374
1701290862255474000,3.176473876953125,-0.011861511506140232,-0.1030697226524353,-0.1964990794658661
1701290862265548800,3.186548828125,0.0517626591026783,-0.0788818970322609,-0.15275394916534424
1701290862275623700,3.196623779296875,0.021293701604008675,0.006785071454942226,-0.20340833067893982
1701290862285698600,3.206698486328125,0.01466997992247343,0.16737839579582214,-0.33843547105789185
1701290862295773700,3.216773681640625,0.11990239471197128,0.2818567752838135,-0.4914622902870178
1701290862305847600,3.22684765625,0.22057294845581055,0.3544813096523285,-0.5709787607192993
1701290862315922700,3.236922607421875,0.22164912521839142,0.41200506687164307,-0.5986889600753784
1701290862325997800,3.246997802734375,0.12819655239582062,0.3943508267402649,-0.5908070802688599
1701290862336072700,3.25707275390625,-0.011081439442932606,0.26384127140045166,-0.5468766689300537
1701290862346147800,3.26714794921875,-0.13353559374809265,0.05900929868221283,-0.5440337061882019
1701290862356223000,3.277222900390625,-0.20599381625652313,-0.13689681887626648,-0.6014456152915955
1701290862366297600,3.287297607421875,-0.20572084188461304,-0.2638222873210907,-0.7052859663963318
1701290862376372700,3.297372802734375,-0.15870726108551025,-0.3157469928264618,-0.7680897116661072
1701290862386447600,3.307447509765625,-0.08282572031021118,-0.305204302072525,-0.7014109492301941
1701290862396522800,3.317522705078125,-0.010299316607415676,-0.20343531668186188,-0.49073201417922974
1701290862406598000,3.327597900390625,0.05653316155076027,-0.021723242476582527,-0.2648707628250122
1701290862416672800,3.3376728515625,0.1430177241563797,0.17950600385665894,-0.0784769281744957
1701290862426748000,3.347747802734375,0.2246379852294922,0.41043511033058167,0.21553687751293182
1701290862436822500,3.357822509765625,0.2547120153903961,0.6615421772003174,0.33205628395080566
1701290862446897000,3.36789697265625,0.170597106218338,0.5940269231796265,-0.11685330420732498
1701290862456971500,3.377971435546875,0.03357800096273422,0.15497367084026337,-0.7162549495697021
1701290862467046700,3.388046630859375,0.08922296017408371,-0.3737950325012207,-1.051161289215088
1701290862477121800,3.398121826171875,0.5997893214225769,0.6515864133834839,-0.22027775645256042
1701290862487196700,3.40819677734375,1.3846217393875122,2.4125349521636963,1.6911007165908813
1701290862497271800,3.418271728515625,1.1094099283218384,1.2767770290374756,1.9727752208709717
1701290862507347000,3.428346923828125,0.583426296710968,-0.5235193967819214,1.594284176826477
1701290862517421800,3.438421875,0.131618931889534,-0.9817565083503723,1.199377179145813
1701290862527496700,3.44849658203125,-0.1918981373310089,-0.8480596542358398,0.7086605429649353
1701290862537571600,3.458571533203125,-0.26564666628837585,-1.0885337591171265,0.14252200722694397
1701290862547646700,3.468646728515625,-0.07815404236316681,-1.3069218397140503,-0.3905060589313507
1701290862557721900,3.478721923828125,0.19282285869121552,-1.049337387084961,-0.8392407298088074
1701290862567796700,3.488796630859375,0.3410019874572754,-0.5965277552604675,-1.1226974725723267
1701290862577870800,3.498870849609375,0.41688209772109985,0.25394606590270996,-1.1585465669631958
1701290862587945700,3.50894580078125,0.45689496397972107,1.9022494554519653,-0.921504557132721
1701290862598020900,3.519020751953125,0.4905107021331787,3.509338617324829,-0.2705768346786499
1701290862608095700,3.529095703125,0.3214527666568756,3.787824869155884,0.4045998156070709
1701290862618170600,3.539170654296875,0.007243191823363304,2.781806707382202,0.3603042662143707
1701290862628245800,3.549245849609375,-0.32029592990875244,0.9560840725898743,-0.2170693725347519
1701290862638320600,3.559320556640625,-0.5235074162483215,-0.703970193862915,-0.6794737577438354
1701290862648395800,3.569395751953125,-0.6582907438278198,-1.4510221481323242,-0.8228023052215576
1701290862658471000,3.579470947265625,-0.6971840858459473,-1.2256442308425903,-0.7701393365859985
1701290862668545800,3.5895458984375,-0.6195868253707886,-0.5135542750358582,-0.6038081049919128
1701290862678621000,3.599620849609375,-0.5305669903755188,0.144015371799469,-0.45406657457351685
1701290862688695600,3.609695556640625,-0.48207923769950867,0.5923619270324707,-0.414481520652771
1701290862698770700,3.619770751953125,-0.4569815993309021,0.641656756401062,-0.4297230541706085
1701290862708845800,3.629845703125,-0.4517119526863098,0.28516730666160583,-0.4415443539619446
1701290862718919700,3.639919677734375,-0.47726017236709595,-0.24736690521240234,-0.47290360927581787
1701290862728994800,3.649994873046875,-0.4651319086551666,-0.6069445013999939,-0.509277880191803
1701290862739069700,3.660069580078125,-0.38061222434043884,-0.6624317169189453,-0.5320702791213989
1701290862749144800,3.670144775390625,-0.2953694760799408,-0.487654447555542,-0.5379005670547485
1701290862759219700,3.6802197265625,-0.22317039966583252,-0.26720279455184937,-0.4848993718624115
1701290862769294800,3.690294921875,-0.14185595512390137,-0.19354109466075897,-0.371228963136673
1701290862779369700,3.70036962890625,-0.06935964524745941,-0.211732879281044,-0.2251063734292984
1701290862789444600,3.710444580078125,-0.009411152452230453,-0.20379191637039185,-0.09374553710222244
1701290862799519700,3.720519775390625,0.027657385915517807,-0.1898534744977951,-0.024118782952427864
1701290862809595000,3.730594970703125,0.036098044365644455,-0.227133646607399,0.011922175996005535
1701290862819669800,3.740669677734375,0.03773322328925133,-0.2980554699897766,0.018104437738656998
1701290862829745000,3.750744873046875,0.011857290752232075,-0.33260852098464966,-0.011620386503636837
1701290862839818800,3.76081884765625,-0.008378472179174423,-0.3628828227519989,-0.018307318910956383
1701290862849894000,3.770893798828125,0.00853939913213253,-0.49477827548980713,0.020464252680540085
1701290862859968800,3.78096875,0.04874514043331146,-0.6963739991188049,0.08929577469825745
1701290862870043600,3.791043701171875,0.10989141464233398,-0.9007294774055481,0.17366960644721985
1701290862880118800,3.801118896484375,0.15339362621307373,-0.8694431781768799,0.3028659522533417
1701290862890193700,3.811193603515625,0.22253195941448212,-0.47654104232788086,0.545126736164093
1701290862900268800,3.821268798828125,0.3619425892829895,-0.22994431853294373,0.6691831946372986
1701290862910343700,3.83134375,0.4305889904499054,-0.3045680820941925,0.5335454940795898
1701290862920418800,3.841418701171875,0.3078654706478119,-0.4400859773159027,0.32690948247909546
1701290862930494000,3.851493896484375,0.07307996600866318,-0.49870264530181885,0.17639383673667908
1701290862940568600,3.861568603515625,-0.1254107505083084,-0.36596083641052246,0.1908433586359024
1701290862950643700,3.871643798828125,-0.1259973645210266,0.042712993919849396,0.44261202216148376
1701290862960718800,3.88171875,0.06859902292490005,0.5906796455383301,0.8218325972557068
1701290862970792700,3.891792724609375,0.24291715025901794,0.9296307563781738,0.9703937768936157
1701290862980867800,3.901867919921875,0.2377825826406479,0.7710842490196228,0.7990217804908752
1701290862990942700,3.911942626953125,0.14001695811748505,0.441668838262558,0.6508293151855469
1701290863001017900,3.922017822265625,0.09518769383430481,0.46622875332832336,0.9089670777320862
1701290863011092700,3.9320927734375,0.21522651612758636,0.7794762253761292,1.4213037490844727
1701290863021167900,3.94216796875,0.4150797128677368,0.8185901045799255,1.604848861694336
1701290863031242800,3.95224267578125,0.6095964908599854,0.7148440480232239,1.6054937839508057
1701290863041317600,3.962317626953125,0.7197171449661255,0.5771032571792603,1.669052004814148
1701290863051392800,3.972392822265625,0.689886748790741,0.36372634768486023,1.7055089473724365
1701290863061467600,3.982467529296875,0.5603502988815308,-0.004665242042392492,1.6521472930908203
1701290863071542800,3.992542724609375,0.4871423840522766,-0.39704594016075134,1.6045352220535278
1701290863081618000,4.002617919921875,0.509679913520813,-0.6847850680351257,1.5537787675857544
1701290863091691800,4.01269189453125,0.6807116866111755,-0.9729217290878296,1.4107340574264526
1701290863101767000,4.022766845703125,0.9485461115837097,-1.0938372611999512,1.2299474477767944
1701290863111841800,4.032841796875,1.2901095151901245,-0.8063170909881592,1.089908242225647
1701290863121916700,4.042916748046875,1.6506810188293457,-0.3249877691268921,0.993208646774292
1701290863131991800,4.05299169921875,1.9073078632354736,0.14573395252227783,0.9532436728477478
1701290863142066700,4.063066650390625,1.9290539026260376,0.7824262380599976,0.9566857814788818
1701290863152141800,4.073141845703125,1.6456406116485596,1.3340035676956177,0.8187909126281738
1701290863162216700,4.083216796875,1.2234699726104736,1.2020418643951416,0.5414810180664062
1701290863172291800,4.093291748046875,0.9510644674301147,0.39848095178604126,0.2648760974407196
1701290863182366700,4.10336669921875,0.8192499876022339,-0.6748690605163574,0.058325570076704025
1701290863192441600,4.113441650390625,0.7354451417922974,-1.4110838174819946,-0.08779676258563995
1701290863202516700,4.123516845703125,0.6239457726478577,-1.3920787572860718,-0.15883766114711761
1701290863212591600,4.133591552734375,0.48504504561424255,-0.7877804040908813,-0.11883122473955154
1701290863222665700,4.143665771484375,0.3758578300476074,-0.020295200869441032,0.02072453871369362
1701290863232741000,4.1537412109375,0.3168109059333801,0.5892304182052612,0.201373890042305
1701290863242816000,4.16381591796875,0.3358120322227478,0.8291330337524414,0.3335556387901306
1701290863252891100,4.17389111328125,0.36634084582328796,0.6345537900924683,0.3250572085380554
1701290863262966300,4.18396630859375,0.3202047646045685,0.11954452097415924,0.1501610279083252
1701290863273041000,4.194041015625,0.2149575650691986,-0.451143741607666,-0.08707749843597412
1701290863283116000,4.204115966796875,0.11296462267637253,-0.828998327255249,-0.25679463148117065
1701290863293191000,4.21419091796875,0.012091116979718208,-1.0388795137405396,-0.3575499355792999
1701290863303266000,4.22426611328125,-0.09803272783756256,-1.0598188638687134,-0.4115423262119293
1701290863313341200,4.234341064453125,-0.21436916291713715,-0.9248075485229492,-0.4263375401496887
1701290863323416000,4.244416015625,-0.3650851547718048,-0.7488186955451965,-0.42392152547836304
1701290863333491200,4.2544912109375,-0.5174946784973145,-0.5779989957809448,-0.42716896533966064
1701290863343565800,4.26456591796875,-0.6496996283531189,-0.4574859142303467,-0.466972291469574
1701290863353640200,4.27464013671875,-0.7551916837692261,-0.405762255191803,-0.5616484880447388
1701290863363714800,4.28471484375,-0.8563798069953918,-0.31786197423934937,-0.6736011505126953
1701290863373790000,4.2947900390625,-0.9668965339660645,-0.17339618504047394,-0.7670720815658569
1701290863383865000,4.304864990234375,-1.093644142150879,-0.009952403604984283,-0.8307807445526123
1701290863393940000,4.31493994140625,-1.1917810440063477,0.13471174240112305,-0.8588250875473022
1701290863404015000,4.32501513671875,-1.2365562915802002,0.26954227685928345,-0.859821617603302
1701290863414090200,4.33509033203125,-1.237673044204712,0.41957661509513855,-0.8596887588500977
1701290863424165000,4.3451650390625,-1.24229896068573,0.5962446331977844,-0.9039174914360046
1701290863434240000,4.355239990234375,-1.294687032699585,0.7803899645805359,-0.9888131022453308
1701290863444315000,4.36531494140625,-1.3774460554122925,0.9026865363121033,-1.065242886543274
1701290863454390000,4.37539013671875,-1.4313509464263916,0.8951152563095093,-1.0865689516067505
1701290863464465200,4.385465087890625,-1.447826862335205,0.7264814972877502,-1.055362343788147
1701290863474539000,4.3955390625,-1.4232591390609741,0.47263628244400024,-1.012966275215149
1701290863484614100,4.4056142578125,-1.3607573509216309,0.20073236525058746,-1.0133631229400635
1701290863494689000,4.41568896484375,-1.2671505212783813,-0.0033684568479657173,-1.0685843229293823
1701290863504764200,4.42576416015625,-1.1397507190704346,-0.12086232751607895,-1.1160008907318115
1701290863514839000,4.435839111328125,-0.951131284236908,-0.19178083539009094,-1.091032862663269
1701290863524914000,4.445913818359375,-0.6467205286026001,-0.22484557330608368,-0.946606457233429
1701290863534989000,4.455989013671875,-0.207066148519516,-0.2771536409854889,-0.6282922029495239
1701290863545064000,4.46606396484375,0.20540796220302582,-0.3199298679828644,-0.2814239263534546
1701290863555139000,4.47613916015625,0.4353904128074646,-0.3883008062839508,-0.13192200660705566
1701290863565214200,4.486214111328125,0.5157909989356995,-0.5063262581825256,-0.1429203301668167
1701290863575289000,4.4962890625,0.6474297642707825,-0.5417104959487915,-0.15268227458000183
1701290863585364200,4.5063642578125,0.7064475417137146,-0.374226450920105,-0.12042739987373352
1701290863595438800,4.51643896484375,0.6612802743911743,0.02063329704105854,-0.03806476667523384
1701290863605513200,4.52651318359375,0.5592823028564453,0.5600869059562683,0.06057658791542053
1701290863615587800,4.536587890625,0.38235965371131897,1.0593948364257812,0.08499355614185333
1701290863625663000,4.5466630859375,0.1704798936843872,1.2750080823898315,0.017497334629297256
1701290863635738000,4.556738037109375,0.03578992933034897,1.2141789197921753,-0.13149341940879822
1701290863645813000,4.56681298828125,-0.027536045759916306,1.0436631441116333,-0.3915044963359833
1701290863655888100,4.57688818359375,-0.040770985186100006,1.0574486255645752,-0.7608980536460876
1701290863665963000,4.586962890625,-0.056888703256845474,1.0598028898239136,-0.9951292276382446
1701290863676038100,4.5970380859375,-0.11885883659124374,0.348014235496521,-0.8160995244979858
1701290863686113000,4.607113037109375,-0.2058832049369812,-0.8835558295249939,-0.47773322463035583
1701290863696188000,4.61718798828125,-0.2114097774028778,-1.744136095046997,-0.46695011854171753
1701290863706263000,4.627262939453125,-0.14463047683238983,-1.7721741199493408,-0.6992219686508179
1701290863716338200,4.637338134765625,-0.029482519254088402,-1.0878140926361084,-0.9832605123519897
1701290863726412000,4.647412109375,0.14787788689136505,0.19142921268939972,-0.9480071663856506
1701290863736487200,4.657487060546875,0.4467773139476776,1.4629225730895996,0.3387306332588196
1701290863746562000,4.66756201171875,0.6559305191040039,1.291290283203125,1.678378701210022
1701290863756637200,4.67763720703125,0.47523143887519836,0.005610683001577854,1.4573004245758057
1701290863766712000,4.687712158203125,0.11458775401115417,-0.46326279640197754,0.6348965764045715
1701290863776787000,4.697786865234375,-0.07854067534208298,-0.6835114359855652,0.07201748341321945
1701290863786862000,4.707862060546875,0.004550752229988575,-1.1077396869659424,-0.2233649045228958
1701290863796937000,4.71793701171875,0.2678709328174591,-1.3506988286972046,-0.3539029657840729
1701290863807012000,4.72801220703125,0.41469714045524597,-0.9229896068572998,-0.403694748878479
1701290863817087000,4.7380869140625,0.30562326312065125,0.08631109446287155,-0.524506151676178
1701290863827162000,4.748162109375,0.1049913540482521,0.9798434376716614,-0.7918888330459595
1701290863837237000,4.758237060546875,-0.05040799453854561,1.2224315404891968,-1.0436255931854248
1701290863847311000,4.76831103515625,-0.06829991191625595,0.9590913653373718,-1.1522676944732666
1701290863857386200,4.77838623046875,-0.06854180246591568,0.678978681564331,-1.2269916534423828
1701290863867460900,4.7884609375,-0.18670865893363953,1.893017053604126,-1.2851439714431763
1701290863877536000,4.798535888671875,-0.17331725358963013,2.199758291244507,-0.3591999411582947
1701290863887611100,4.808611083984375,-0.16554614901542664,0.32351115345954895,0.035840317606925964
1701290863897686000,4.81868603515625,-0.26591387391090393,-1.1949785947799683,-0.26449641585350037
1701290863907761200,4.82876123046875,-0.3736318051815033,-1.536678671836853,-0.5826443433761597
1701290863917836000,4.8388359375,-0.39875200390815735,-1.052847146987915,-0.7205109596252441
1701290863927911200,4.8489111328125,-0.30966606736183167,-0.20078201591968536,-0.6364368200302124
1701290863937986000,4.858986083984375,-0.16372254490852356,0.41850516200065613,-0.3760967254638672
1701290863948061000,4.86906103515625,-0.03657550364732742,0.4761354327201843,-0.15276667475700378
1701290863958136000,4.879135986328125,0.014470134861767292,0.05461852252483368,-0.09688586741685867
1701290863968210000,4.8892099609375,-0.004720337688922882,-0.505467414855957,-0.16327421367168427
1701290863978285000,4.89928515625,-0.04492291808128357,-0.9468226432800293,-0.24851077795028687
1701290863988360200,4.909360107421875,-0.07375189661979675,-1.1483451128005981,-0.2937246263027191
1701290863998435000,4.91943505859375,-0.08600860834121704,-0.9918404221534729,-0.26445525884628296
1701290864008510200,4.92951025390625,-0.06781868636608124,-0.4772367775440216,-0.1233023926615715
1701290864018585000,4.939585205078125,-0.010049699805676937,0.09990567713975906,0.1421293020248413
1701290864028660000,4.949659912109375,0.002288992051035166,0.3718266785144806,0.3877885937690735
1701290864038735000,4.959735107421875,-0.05066843330860138,0.31026723980903625,0.5190654993057251
1701290864048810000,4.96981005859375,-0.1356448531150818,0.07845158129930496,0.5740365982055664
1701290864058885000,4.979885009765625,-0.16773520410060883,-0.12637938559055328,0.5779380202293396
1701290864068960000,4.9899599609375,-0.12373924255371094,-0.16483409702777863,0.5780903697013855
1701290864079035100,5.00003515625,-0.020807867869734764,0.07498066872358322,0.6696752309799194
1701290864089109000,5.01010888671875,0.11611829698085785,0.40524569153785706,0.8033475279808044
1701290864099184000,5.02018408203125,0.20483796298503876,0.4213823676109314,0.8153257966041565
1701290864109259000,5.030259033203125,0.17761379480361938,0.1575384885072708,0.6554112434387207
1701290864119334000,5.040333984375,0.06643398106098175,-0.13326787948608398,0.4715927839279175
1701290864129409000,5.050408935546875,-0.05521228909492493,-0.2891903817653656,0.32449600100517273
1701290864139484200,5.060484130859375,-0.12975656986236572,-0.1309884786605835,0.2520764172077179
1701290864149559000,5.07055908203125,-0.0782526284456253,0.30458375811576843,0.3471326231956482
1701290864159634200,5.08063427734375,0.09746668487787247,0.7617498636245728,0.6098985075950623
1701290864169709000,5.090708984375,0.32399994134902954,0.8688178062438965,0.854615330696106
1701290864179784000,5.100783935546875,0.4997160732746124,0.5735965967178345,0.9326698184013367
1701290864189859000,5.110859130859375,0.651845395565033,0.39107176661491394,1.0326898097991943
1701290864199934000,5.120933837890625,0.8465735912322998,0.550020694732666,1.3177359104156494
1701290864210008000,5.131008056640625,1.1398324966430664,0.7400429844856262,1.7445194721221924
1701290864220083000,5.1410830078125,1.5438371896743774,0.5502835512161255,1.9941076040267944
1701290864230158000,5.151157958984375,1.7519211769104004,-0.03192421793937683,1.9808602333068848
1701290864240233000,5.16123291015625,1.7254799604415894,-0.6830666065216064,1.8821321725845337
1701290864250308000,5.17130810546875,1.507480502128601,-1.2068511247634888,1.7038027048110962
1701290864260383000,5.181383056640625,1.2593872547149658,-1.5071383714675903,1.4677693843841553
1701290864270457900,5.191457763671875,1.1466577053070068,-1.5745095014572144,1.2148998975753784
1701290864280533000,5.201532958984375,1.2024474143981934,-1.4568434953689575,0.9838104248046875
1701290864290607900,5.21160791015625,1.3084484338760376,-1.2121696472167969,0.8583307862281799
1701290864300683000,5.22168310546875,1.2827163934707642,-0.7135684490203857,0.9017727971076965
1701290864310758100,5.231758056640625,1.0984890460968018,-0.04126569256186485,0.9434382319450378
1701290864320832000,5.24183203125,0.9042463302612305,0.5764826536178589,0.8515989184379578
1701290864330907100,5.2519072265625,0.8253843188285828,0.8381547927856445,0.6920185685157776
1701290864340982000,5.26198193359375,0.8333319425582886,0.7569804191589355,0.5494672656059265
1701290864351057200,5.27205712890625,0.8033133149147034,0.5535172820091248,0.43256089091300964
1701290864361132000,5.282132080078125,0.7035243511199951,0.3489370048046112,0.32540738582611084
1701290864371207000,5.29220703125,0.6418055891990662,0.23301729559898376,0.28763869404792786
1701290864381282000,5.302281982421875,0.6409952044487,0.31495732069015503,0.3141256868839264
1701290864391357000,5.31235693359375,0.6353687644004822,0.4837341010570526,0.31208011507987976
1701290864401432000,5.32243212890625,0.5233016014099121,0.44342485070228577,0.19022014737129211
1701290864411507000,5.3325068359375,0.33391645550727844,0.09122525155544281,-0.028862399980425835
1701290864421582000,5.34258203125,0.14244404435157776,-0.4093395471572876,-0.251558780670166
1701290864431657000,5.352656982421875,-0.03705061227083206,-0.8268584609031677,-0.43310248851776123
1701290864441731000,5.36273095703125,-0.1978769451379776,-1.0195618867874146,-0.549563467502594
1701290864451806000,5.372805908203125,-0.35630762577056885,-1.030086636543274,-0.6308711171150208
1701290864461880800,5.382880859375,-0.512408435344696,-0.9225817322731018,-0.6900531053543091
1701290864471956000,5.3929560546875,-0.6568708419799805,-0.7715983390808105,-0.7188736200332642
1701290864482031000,5.403031005859375,-0.784564733505249,-0.623471200466156,-0.7323244214057922
1701290864492106000,5.41310595703125,-0.9029129147529602,-0.4394534230232239,-0.7379037737846375
1701290864502181000,5.42318115234375,-0.9915701150894165,-0.28845152258872986,-0.7597987055778503
1701290864512256000,5.433256103515625,-1.0521721839904785,-0.16909688711166382,-0.7803561687469482
1701290864522331000,5.443330810546875,-1.0885875225067139,-0.0341951884329319,-0.7933517098426819
1701290864532406000,5.453406005859375,-1.119948387145996,0.17743849754333496,-0.7988175749778748
1701290864542481000,5.46348095703125,-1.181496500968933,0.4509221017360687,-0.7853067517280579
1701290864552556000,5.47355615234375,-1.273173213005066,0.7222766280174255,-0.7358140349388123
1701290864562630000,5.4836298828125,-1.3579539060592651,1.000996470451355,-0.6942070722579956
1701290864572705000,5.493705078125,-1.391586422920227,1.2937524318695068,-0.6966829895973206
1701290864582780200,5.5037802734375,-1.381704330444336,1.5603749752044678,-0.7442169189453125
1701290864592855000,5.51385498046875,-1.3623697757720947,1.7252682447433472,-0.8227940201759338
1701290864602930200,5.52393017578125,-1.3540247678756714,1.6769356727600098,-0.9287480115890503
1701290864613004800,5.5340048828125,-1.2785108089447021,1.4517672061920166,-0.979659378528595
1701290864623080000,5.544079833984375,-1.0529532432556152,1.0465474128723145,-0.9041460752487183
1701290864633155000,5.554155029296875,-0.7360485196113586,0.4565887749195099,-0.7101070880889893
1701290864643230000,5.56422998046875,-0.44050925970077515,-0.12989097833633423,-0.5104132890701294
1701290864653305000,5.57430517578125,-0.3047271966934204,-0.4926486611366272,-0.4554251432418823
1701290864663380000,5.5843798828125,-0.2193223536014557,-0.6057193875312805,-0.5148009657859802
1701290864673455000,5.594455078125,-0.06688594073057175,-0.5481234788894653,-0.5321621298789978
1701290864683529000,5.604529052734375,0.06861858814954758,-0.44405093789100647,-0.4808492660522461
1701290864693604000,5.61460400390625,0.1369640827178955,-0.3608260750770569,-0.4300329387187958
1701290864703679000,5.624678955078125,0.1825512945652008,-0.3364981412887573,-0.4493774473667145
1701290864713753900,5.63475390625,0.19578933715820312,-0.36496254801750183,-0.5323551297187805
1701290864723829000,5.6448291015625,0.16693232953548431,-0.434500128030777,-0.5813488960266113
1701290864733904100,5.654904052734375,0.0847434550523758,-0.476039856672287,-0.5196067094802856
1701290864743979000,5.66497900390625,-0.02042849175632,-0.3960726261138916,-0.3701012432575226
1701290864754054100,5.67505419921875,-0.1572081744670868,-0.21877692639827728,-0.2505303621292114
1701290864764129000,5.68512890625,-0.2619672119617462,-0.030474793165922165,-0.2020791620016098
1701290864774204000,5.695203857421875,-0.32564738392829895,0.18959125876426697,-0.20911815762519836
1701290864784279000,5.705279052734375,-0.3287690281867981,0.3620223104953766,-0.27871260046958923
1701290864794353000,5.715352783203125,-0.21773652732372284,0.3964889347553253,-0.3465060293674469
1701290864804428000,5.725427978515625,-0.025126904249191284,0.8225647807121277,-0.3137209117412567
1701290864814503000,5.7355029296875,0.15741175413131714,1.579497218132019,0.08692639321088791
1701290864824578000,5.745578125,0.3261983394622803,1.7164263725280762,0.6021361351013184
1701290864834653000,5.75565283203125,0.39752843976020813,1.100988745689392,0.5981903672218323
1701290864844728000,5.76572802734375,0.40367797017097473,0.204584538936615,0.16043683886528015
1701290864854803200,5.77580322265625,0.3425810635089874,-0.4269135296344757,-0.2523520588874817
1701290864864877800,5.7858779296875,0.3222285509109497,-0.39868155121803284,-0.5678024888038635
1701290864874953000,5.795952880859375,0.38657107949256897,0.6599100828170776,-0.2607043385505676
1701290864885028000,5.806028076171875,0.43311816453933716,1.0518138408660889,0.6230843663215637
1701290864895103000,5.81610302734375,0.2793400287628174,-0.18783171474933624,0.9612799882888794
1701290864905178000,5.82617822265625,0.19927473366260529,-1.526794195175171,0.8823368549346924
1701290864915252000,5.836251953125,0.18204566836357117,-1.832850694656372,0.7380934357643127
1701290864925327000,5.8463271484375,0.12096510827541351,-1.1863738298416138,0.4875592589378357
1701290864935402000,5.856402099609375,0.05028587579727173,-0.4112510085105896,0.08639584481716156
1701290864945477000,5.86647705078125,0.0650658905506134,-0.05725404992699623,-0.2922417223453522
1701290864955552000,5.876552001953125,0.007033209782093763,0.03614860400557518,-0.5954021215438843
1701290864965627000,5.886626953125,-0.10378886014223099,0.022690795361995697,-0.8235569000244141
1701290864975702000,5.896701904296875,-0.16359227895736694,0.06895097345113754,-1.005197286605835
1701290864985777000,5.90677685546875,-0.18473756313323975,0.4496091604232788,-1.1875022649765015
1701290864995852000,5.91685205078125,-0.23005764186382294,1.3253204822540283,-1.259290099143982
1701290865005927200,5.92692724609375,-0.19368372857570648,2.05674147605896,-0.9118651151657104
1701290865016001000,5.9370009765625,-0.11959671229124069,1.6469744443893433,-0.30305349826812744
1701290865026076200,5.947076171875,-0.14856892824172974,0.3291487991809845,-0.11899030208587646
1701290865036151000,5.957151123046875,-0.2626004219055176,-0.7406107783317566,-0.4246958792209625
1701290865046226000,5.967225830078125,-0.36265280842781067,-1.1894923448562622,-0.7382150292396545
1701290865056301000,5.977301025390625,-0.3728042542934418,-1.1716665029525757,-0.8374108672142029
1701290865066376000,5.9873759765625,-0.3137863278388977,-0.8242838978767395,-0.7442362308502197
1701290865076451000,5.997451171875,-0.21976207196712494,-0.2917318642139435,-0.544498085975647
1701290865086526000,6.00752587890625,-0.1489051729440689,0.13223937153816223,-0.3547753393650055
1701290865096601000,6.01760107421875,-0.0999743863940239,0.3112645149230957,-0.2737521231174469
1701290865106676200,6.02767626953125,-0.07706554234027863,0.2750173807144165,-0.29160210490226746
1701290865116750800,6.037750732421875,-0.06219099089503288,0.030163399875164032,-0.3144424557685852
1701290865126826000,6.047825927734375,-0.04674968868494034,-0.29319924116134644,-0.2864670157432556
1701290865136899800,6.05789990234375,-0.027295297011733055,-0.48185649514198303,-0.14129172265529633
1701290865146975000,6.06797509765625,-0.007762168534100056,-0.4925566017627716,0.025842320173978806
1701290865157049900,6.0780498046875,-0.007722754031419754,-0.4318772852420807,0.15778809785842896
1701290865167125000,6.088125,-0.0208442285656929,-0.3793371617794037,0.32858574390411377
1701290865177200000,6.0982001953125,-0.04447472095489502,-0.35409384965896606,0.5397632122039795
1701290865187275000,6.10827490234375,-0.053588688373565674,-0.33845579624176025,0.6978254914283752
1701290865197350100,6.11835009765625,-0.027113135904073715,-0.2648700177669525,0.731833815574646
1701290865207425000,6.128425048828125,-0.009743999689817429,-0.12213987857103348,0.6726102828979492
1701290865217500000,6.1385,-0.006974577903747559,-0.007354970555752516,0.6009856462478638
1701290865227575000,6.148574951171875,-0.005716532468795776,0.05370121821761131,0.5584735870361328
1701290865237648600,6.158648681640625,-0.00551439868286252,0.04566273093223572,0.5175133347511292
1701290865247723800,6.168723876953125,-0.007776299491524696,-0.05067836865782738,0.44032448530197144
1701290865257798700,6.178798583984375,0.017512544989585876,-0.21370244026184082,0.35098981857299805
1701290865267873800,6.188873779296875,0.03207865729928017,-0.2654680013656616,0.31298917531967163
1701290865277949000,6.198948974609375,0.020143702626228333,-0.14822234213352203,0.32941529154777527
1701290865288023800,6.20902392578125,0.028992069885134697,0.021613692864775658,0.38163667917251587
1701290865298098700,6.2190986328125,0.09539373219013214,0.07766284793615341,0.4658210873603821
1701290865308173600,6.229173583984375,0.19542717933654785,0.15503786504268646,0.6243690252304077
1701290865318248700,6.239248779296875,0.26832401752471924,0.3306725323200226,0.7667934894561768
1701290865328323800,6.24932373046875,0.2078491747379303,0.3951910138130188,0.7365926504135132
1701290865338398700,6.259398681640625,0.022489428520202637,0.32065656781196594,0.5823665857315063
1701290865348473900,6.269473876953125,-0.16625699400901794,0.25193125009536743,0.4606567919254303
1701290865358547700,6.279547607421875,-0.21358589828014374,0.32807156443595886,0.5303871631622314
1701290865368622800,6.289622802734375,-0.006569809280335903,0.6473951935768127,0.8569537401199341
1701290865378698000,6.299697998046875,0.4826739430427551,1.089577317237854,1.2032041549682617
1701290865388772600,6.309772705078125,1.0872479677200317,1.1200190782546997,1.2000958919525146
1701290865398847700,6.31984765625,1.5160655975341797,0.812771737575531,1.0938807725906372
1701290865408922600,6.329922607421875,1.6275255680084229,0.48334696888923645,1.129103183746338
1701290865418997800,6.339997802734375,1.4154380559921265,0.12960194051265717,1.1561249494552612
1701290865429073000,6.350072998046875,0.9870858192443848,-0.23965300619602203,1.0388416051864624
1701290865439147800,6.360147705078125,0.8037852048873901,-0.6561412811279297,0.8521865010261536
1701290865449223000,6.370222900390625,0.8598988652229309,-1.0789741277694702,0.7031151056289673
1701290865459297500,6.380297607421875,0.9773136377334595,-1.241963267326355,0.5859612822532654
1701290865469372000,6.390371826171875,1.1200042963027954,-1.1727579832077026,0.455954372882843
1701290865479446500,6.400446533203125,1.2338032722473145,-0.9400852918624878,0.36486732959747314
1701290865489521700,6.410521728515625,1.2783870697021484,-0.5740880966186523,0.39953386783599854
1701290865499596800,6.4205966796875,1.2306314706802368,-0.12407747656106949,0.5177939534187317
1701290865509671700,6.430671630859375,1.0536963939666748,0.21569916605949402,0.6003187894821167
1701290865519746800,6.440746826171875,0.820343017578125,0.33940380811691284,0.5895596146583557
1701290865529822000,6.450822021484375,0.6524767875671387,0.27957844734191895,0.5036758780479431
1701290865539896800,6.460896728515625,0.5468499660491943,0.13387982547283173,0.3823734223842621
1701290865549971700,6.4709716796875,0.4608745872974396,-0.047443486750125885,0.27554282546043396
1701290865560046600,6.481046630859375,0.38348260521888733,-0.17484165728092194,0.18773069977760315
1701290865570121700,6.491121826171875,0.2969118356704712,-0.1840585470199585,0.14319047331809998
1701290865580195600,6.501195556640625,0.24590511620044708,-0.1186840683221817,0.1535823941230774
1701290865590270700,6.511270751953125,0.24117662012577057,-0.03760449215769768,0.17513275146484375
1701290865600345900,6.521345947265625,0.26225394010543823,0.0017913831397891045,0.1490044742822647
1701290865610420700,6.531420654296875,0.26979660987854004,-0.07353594154119492,0.0673573836684227
1701290865620496000,6.541495849609375,0.23607593774795532,-0.21740736067295074,-0.02988235093653202
1701290865630570800,6.55157080078125,0.17457593977451324,-0.4050274193286896,-0.1012788638472557
1701290865640645600,6.561645751953125,0.10295447707176208,-0.610357940196991,-0.1943526268005371
1701290865650720800,6.571720703125,0.02513258531689644,-0.713568389415741,-0.28817251324653625
1701290865660795600,6.581795654296875,-0.059484563767910004,-0.6455853581428528,-0.3606643080711365
1701290865670870800,6.591870849609375,-0.15419411659240723,-0.46453502774238586,-0.3962819278240204
1701290865680946000,6.60194580078125,-0.2565101087093353,-0.27034637331962585,-0.3818039298057556
1701290865691019800,6.612019775390625,-0.36980491876602173,-0.16799719631671906,-0.3319993317127228
1701290865701095000,6.622094970703125,-0.4961937367916107,-0.166115403175354,-0.27356478571891785
1701290865711169800,6.632169677734375,-0.623117208480835,-0.1862001270055771,-0.24123872816562653
1701290865721245000,6.642244873046875,-0.7329561114311218,-0.1649281233549118,-0.23318426311016083
1701290865731319600,6.652319580078125,-0.8353872895240784,-0.08948972821235657,-0.2617046535015106
1701290865741394700,6.662394775390625,-0.9295303225517273,0.023109517991542816,-0.30190426111221313
1701290865751469800,6.6724697265625,-1.0200718641281128,0.1472397744655609,-0.3501400649547577
1701290865761544700,6.682544677734375,-1.1041600704193115,0.27365681529045105,-0.39938512444496155
1701290865771619800,6.692619873046875,-1.1777657270431519,0.4125010669231415,-0.42607250809669495
1701290865781694700,6.70269482421875,-1.2472665309906006,0.581196665763855,-0.43690651655197144
1701290865791768800,6.712768798828125,-1.3112627267837524,0.779171884059906,-0.42793118953704834
1701290865801843700,6.72284375,-1.3562650680541992,1.011940360069275,-0.42407122254371643
1701290865811918800,6.7329189453125,-1.3924050331115723,1.2831449508666992,-0.45513495802879333
1701290865821993700,6.74299365234375,-1.4421347379684448,1.4316420555114746,-0.5317623615264893
1701290865832068600,6.753068603515625,-1.4831640720367432,1.2958565950393677,-0.6160178184509277
1701290865842143700,6.763143798828125,-1.5153014659881592,0.9041447639465332,-0.6706494092941284
1701290865852219000,6.773218994140625,-1.4622085094451904,0.39863044023513794,-0.660386323928833
1701290865862293800,6.783293701171875,-1.2766155004501343,-0.011248139664530754,-0.5668875575065613
1701290865872369000,6.793368896484375,-0.9847334623336792,-0.2693012058734894,-0.4086694121360779
1701290865882443800,6.80344384765625,-0.6569345593452454,-0.39689910411834717,-0.29420968890190125
1701290865892518000,6.813517822265625,-0.3983973264694214,-0.4580175280570984,-0.31594759225845337
1701290865902592800,6.8235927734375,-0.22590036690235138,-0.47338929772377014,-0.4493389129638672
1701290865912667600,6.833667724609375,-0.07592837512493134,-0.36552494764328003,-0.615542471408844
1701290865922742800,6.84374267578125,0.06725221872329712,-0.17713961005210876,-0.7147111296653748
1701290865932817700,6.853817626953125,0.2014181762933731,0.016982577741146088,-0.7351939678192139
1701290865942892800,6.863892822265625,0.29231345653533936,0.15076646208763123,-0.6927139163017273
1701290865952967700,6.8739677734375,0.3083927035331726,0.22072771191596985,-0.5833853483200073
1701290865963042800,6.884042724609375,0.24148105084896088,0.24023856222629547,-0.46567070484161377
1701290865973118000,6.894117919921875,0.1478397697210312,0.21558448672294617,-0.3691995441913605
1701290865983192600,6.904192626953125,0.06559789180755615,0.23267799615859985,-0.32073482871055603
1701290865993267700,6.914267822265625,0.04622558876872063,0.2712287902832031,-0.3123762607574463
1701290866003342800,6.9243427734375,0.11350902169942856,0.2559499740600586,-0.3552776575088501
1701290866013416700,6.934416748046875,0.29043012857437134,0.36284923553466797,-0.3387083113193512
1701290866023491800,6.944491943359375,0.540993869304657,0.8610444068908691,-0.15796861052513123
1701290866033566700,6.954566650390625,0.7532345652580261,1.1232270002365112,0.0019136964110657573
1701290866043641900,6.964641845703125,0.775145411491394,0.756010115146637,-0.15604211390018463
1701290866053716700,6.974716796875,0.5992940664291382,0.02922843024134636,-0.44127750396728516
1701290866063791900,6.9847919921875,0.3706084191799164,-0.4572938084602356,-0.6611542105674744
1701290866073866800,6.99486669921875,0.07382281869649887,-0.23784999549388885,-0.7208721041679382
1701290866083941600,7.004941650390625,-0.2487136870622635,0.5210376977920532,-0.5285410284996033
1701290866094016800,7.015016845703125,-0.257621705532074,0.6613366603851318,-0.3985728919506073
1701290866104091600,7.025091552734375,-0.04129314050078392,-0.23568975925445557,-0.3516154885292053
1701290866114166800,7.035166748046875,0.04571020230650902,-1.606573224067688,-0.257899671792984
1701290866124241000,7.045240966796875,-0.04495445266366005,-2.4234135150909424,-0.04215484485030174
1701290866134315800,7.055315673828125,-0.12507885694503784,-1.50486159324646,0.30003634095191956
1701290866144391000,7.065390869140625,-0.18718218803405762,1.129062533378601,0.45192334055900574
1701290866154465800,7.0754658203125,-0.17875425517559052,1.8091899156570435,0.3022457957267761
1701290866164540700,7.085540771484375,-0.07248587161302567,0.8329895734786987,0.13261759281158447
1701290866174615800,7.09561572265625,0.13656653463840485,-0.39496999979019165,-0.010456420481204987
1701290866184690700,7.105690673828125,0.237420454621315,-0.7222682237625122,-0.17885394394397736
1701290866194765800,7.115765869140625,0.17340132594108582,-0.1516513228416443,-0.367023766040802
1701290866204840700,7.1258408203125,0.03175763785839081,0.7171328067779541,-0.5388567447662354
1701290866214915800,7.135915771484375,-0.1417643278837204,1.4624038934707642,-0.6556028127670288
1701290866224989700,7.14598974609375,-0.33337610960006714,1.942620038986206,-0.6840259432792664
1701290866235065300,7.1560654296875,-0.5169035196304321,2.0732505321502686,-0.6283386945724487
1701290866245140200,7.16614013671875,-0.6867007613182068,1.811123251914978,-0.5199155807495117
1701290866255215400,7.17621533203125,-0.8268710374832153,1.2082796096801758,-0.4336225986480713
1701290866265290500,7.18629052734375,-0.8888947367668152,0.539246678352356,-0.42140987515449524
1701290866275365400,7.196365478515625,-0.8985617756843567,-0.014585459604859352,-0.4716670513153076
1701290866285440500,7.2064404296875,-0.8800144791603088,-0.27837634086608887,-0.5584496259689331
1701290866295515400,7.216515380859375,-0.8175032138824463,-0.15941312909126282,-0.6476805210113525
1701290866305590300,7.22659033203125,-0.6763373017311096,0.08823660016059875,-0.6485900282859802
1701290866315665400,7.23666552734375,-0.4692912697792053,0.17084340751171112,-0.5348539352416992
1701290866325739300,7.2467392578125,-0.29411572217941284,-0.024204635992646217,-0.4093194603919983
1701290866335814400,7.256814453125,-0.17999699711799622,-0.3470488488674164,-0.3739427924156189
1701290866345889300,7.26688916015625,-0.10086594521999359,-0.5799462795257568,-0.43456006050109863
1701290866355964400,7.27696435546875,-0.02797437086701393,-0.6705461740493774,-0.4527069926261902
1701290866366039300,7.287039306640625,0.05634823441505432,-0.5842531323432922,-0.37633657455444336
1701290866376114400,7.297114501953125,0.14507420361042023,-0.40996742248535156,-0.2376530021429062
1701290866386189600,7.307189453125,0.25144004821777344,-0.34994029998779297,-0.03210623934864998
1701290866396264200,7.31726416015625,0.32318976521492004,-0.4488520920276642,0.19124460220336914
1701290866406339300,7.32733935546875,0.33662885427474976,-0.5828362703323364,0.35398662090301514
1701290866416414500,7.33741455078125,0.3245760500431061,-0.5849466919898987,0.4682833254337311
1701290866426489300,7.3474892578125,0.33985406160354614,-0.4186844825744629,0.5915520191192627
1701290866436563500,7.3575634765625,0.3376525938510895,-0.3159947097301483,0.7060632109642029
1701290866446638300,7.367638427734375,0.29613417387008667,-0.3522177040576935,0.7676690220832825
1701290866456713500,7.37771337890625,0.2516683340072632,-0.360952228307724,0.7832546234130859
1701290866466788400,7.387788330078125,0.23735171556472778,-0.2668140232563019,0.7767112851142883
1701290866476863500,7.397863525390625,0.23537884652614594,-0.1722216010093689,0.7607694864273071
1701290866486938400,7.4079384765625,0.2489660382270813,-0.12632416188716888,0.7485035061836243
1701290866497013200,7.41801318359375,0.28784289956092834,-0.16303083300590515,0.7615906596183777
1701290866507088400,7.42808837890625,0.3632063865661621,-0.12918710708618164,0.8206108212471008
1701290866517163300,7.438163330078125,0.4402264952659607,-0.008200248703360558,0.8982017636299133
1701290866527238400,7.44823828125,0.49383804202079773,0.028991326689720154,0.9321895837783813
1701290866537313500,7.4583134765625,0.4848325550556183,-0.10943247377872467,0.9032081365585327
1701290866547387400,7.468387451171875,0.4099218249320984,-0.21964368224143982,0.8822341561317444
1701290866557462500,7.478462646484375,0.3157343864440918,-0.20011967420578003,0.8644740581512451
1701290866567537400,7.488537353515625,0.21625547111034393,-0.06937044858932495,0.8157792091369629
1701290866577612300,7.4986123046875,0.13242791593074799,0.007768565788865089,0.7127650380134583
1701290866587687400,7.5086875,-0.005254318006336689,0.0073890648782253265,0.627319872379303
1701290866597762300,7.51876220703125,-0.13002124428749084,0.03298281878232956,0.6134567260742188
1701290866607837400,7.52883740234375,-0.1371489316225052,0.17419268190860748,0.6925105452537537
1701290866617912300,7.538912353515625,0.04419143497943878,0.4161503314971924,0.8524304628372192
1701290866627987500,7.548987548828125,0.4208225905895233,0.6812469363212585,1.038930058479309
1701290866638062600,7.5590625,0.9102407097816467,1.0206998586654663,1.2799299955368042
1701290866648136400,7.569136474609375,1.4392752647399902,1.3403841257095337,1.5684685707092285
1701290866658211600,7.579211669921875,1.8524866104125977,1.362549066543579,1.8335989713668823
1701290866668286200,7.5892861328125,1.9794338941574097,0.9953275322914124,1.9013538360595703
1701290866678361300,7.599361328125,1.778739094734192,0.4082808196544647,1.6607507467269897
1701290866688436200,7.609436279296875,1.519029974937439,-0.23276814818382263,1.315915584564209
1701290866698511400,7.619511474609375,1.3672231435775757,-0.7573285698890686,1.034759283065796
1701290866708586500,7.62958642578125,1.2929829359054565,-1.0657846927642822,0.8132822513580322
1701290866718661400,7.639661376953125,1.3153749704360962,-1.0663572549819946,0.6534298658370972
1701290866728736500,7.649736572265625,1.3962639570236206,-0.7759557962417603,0.581192135810852
1701290866738811400,7.659811279296875,1.4672058820724487,-0.27567070722579956,0.6292626857757568
1701290866748886300,7.66988623046875,1.442307472229004,0.307756245136261,0.72825026512146
1701290866758960400,7.67996044921875,1.2572057247161865,0.77083820104599,0.7350760698318481
1701290866769035300,7.69003515625,1.027803897857666,0.8824573755264282,0.6279094219207764
1701290866779110400,7.7001103515625,0.8298633694648743,0.6375200748443604,0.47048965096473694
1701290866789185300,7.710185302734375,0.6325868964195251,0.15383800864219666,0.2718381881713867
1701290866799260400,7.720260498046875,0.4744682312011719,-0.338051438331604,0.07763385772705078
1701290866809335600,7.73033544921875,0.37973612546920776,-0.6727002859115601,-0.02901455946266651
1701290866819410400,7.740410400390625,0.3308652639389038,-0.7532268166542053,-0.05451858788728714
1701290866829485300,7.7504853515625,0.2792228162288666,-0.6152761578559875,-0.05278833210468292
1701290866839560200,7.760560302734375,0.18966448307037354,-0.3920740783214569,-0.06948939710855484
1701290866849635300,7.77063525390625,0.052917029708623886,-0.24709799885749817,-0.10414297878742218
1701290866859709200,7.780709228515625,-0.0913403108716011,-0.23922142386436462,-0.16485850512981415
1701290866869784300,7.790784423828125,-0.2170441746711731,-0.3318570554256439,-0.2580198645591736
1701290866879859500,7.800859375,-0.32063308358192444,-0.4394163489341736,-0.38753849267959595
1701290866889934300,7.810934326171875,-0.4072476029396057,-0.5049716234207153,-0.5352089405059814
1701290866900009500,7.821009521484375,-0.5038464665412903,-0.5364195108413696,-0.6856421828269958
1701290866910084600,7.831084716796875,-0.6294302344322205,-0.5313336849212646,-0.8145463466644287
1701290866920159200,7.8411591796875,-0.7571750283241272,-0.4929666221141815,-0.8993719816207886
1701290866930234400,7.851234375,-0.8616854548454285,-0.4128265082836151,-0.928337574005127
1701290866940309200,7.861309326171875,-0.9394001364707947,-0.36044809222221375,-0.9270106554031372
1701290866950384400,7.87138427734375,-1.0050824880599976,-0.3045070469379425,-0.9152306914329529
1701290866960459500,7.88145947265625,-1.0742510557174683,-0.17589297890663147,-0.9107903242111206
1701290866970533400,7.891533447265625,-1.145115613937378,0.014219434931874275,-0.8592600226402283
1701290866980608500,7.9016083984375,-1.190242052078247,0.21492648124694824,-0.7778266072273254
1701290866990683400,7.911683349609375,-1.195427417755127,0.4225393235683441,-0.6700229048728943
1701290867000758500,7.921758544921875,-1.1814889907836914,0.6179495453834534,-0.5441997051239014
1701290867010833200,7.931833251953125,-1.170850157737732,0.7987601161003113,-0.4647424817085266
1701290867020908300,7.941908203125,-1.1576162576675415,0.956455647945404,-0.4807087182998657
1701290867030983400,7.9519833984375,-1.1292080879211426,1.0350512266159058,-0.5417745113372803
1701290867041058300,7.962058349609375,-1.0817878246307373,0.978385865688324,-0.5453245639801025
1701290867051133400,7.972133544921875,-1.0177630186080933,0.7726843357086182,-0.44281524419784546
1701290867061208600,7.98220849609375,-0.9147308468818665,0.40226489305496216,-0.25516724586486816
1701290867071282400,7.992282470703125,-0.7886469960212708,-0.05644197389483452,-0.06372512131929398
1701290867081357600,8.002357666015625,-0.6626618504524231,-0.3285243809223175,-0.0072768558748066425
1701290867091432400,8.012432373046876,-0.5743176341056824,-0.2117903232574463,-0.10116793215274811
1701290867101507300,8.02250732421875,-0.534050703048706,0.19823001325130463,-0.22202737629413605
1701290867111582200,8.032582275390626,-0.4971848130226135,0.6649993062019348,-0.29326051473617554
1701290867121657300,8.0426572265625,-0.40690433979034424,0.9832486510276794,-0.33237868547439575
1701290867131732500,8.052732421875,-0.2752762734889984,1.102083444595337,-0.33921393752098083
1701290867141807400,8.062807373046875,-0.13984829187393188,0.9932072758674622,-0.3336179554462433
1701290867151882500,8.072882568359375,-0.04127086326479912,0.7118980884552002,-0.33740681409835815
1701290867161957400,8.082957275390624,-0.01153712160885334,0.3714996576309204,-0.36996224522590637
1701290867172031500,8.093031494140625,-0.05257110670208931,0.04066527634859085,-0.42807963490486145
1701290867182106400,8.1031064453125,-0.1553141474723816,-0.2466740757226944,-0.485350102186203
1701290867192181200,8.11318115234375,-0.2819450795650482,-0.3897220492362976,-0.504646897315979
1701290867202256400,8.12325634765625,-0.3455066680908203,-0.4469614326953888,-0.47531139850616455
1701290867212331300,8.133331298828125,-0.2711331248283386,-0.4796440005302429,-0.41817036271095276
1701290867222406400,8.143406494140624,-0.07669565081596375,-0.2245682328939438,-0.2735193073749542
1701290867232481500,8.1534814453125,0.20297540724277496,0.1583048552274704,-0.08789884299039841
1701290867242555600,8.1635556640625,0.49689680337905884,0.11999339610338211,-0.15426139533519745
1701290867252630500,8.173630615234375,0.6837819814682007,-0.3235180079936981,-0.5305258631706238
1701290867262705700,8.18370556640625,0.7616510391235352,-0.6206244230270386,-0.834420919418335
1701290867272779500,8.193779541015624,0.6201266646385193,-0.32039910554885864,-0.6968463063240051
1701290867282854700,8.203854736328125,0.27343183755874634,0.4030519127845764,0.10491780936717987
1701290867292929500,8.213929443359374,0.24733765423297882,0.38671261072158813,0.5720626711845398
1701290867303004400,8.22400439453125,0.3466207683086395,-0.3136853575706482,0.5155094861984253
1701290867313079600,8.23407958984375,0.22136567533016205,-0.9016032218933105,0.37568312883377075
1701290867323154400,8.244154541015625,0.07078955322504044,-1.0862483978271484,0.2284526824951172
1701290867333229600,8.2542294921875,-0.05604482442140579,-0.8276019096374512,0.025282518938183784
1701290867343304400,8.264304443359375,-0.16114552319049835,-0.13644824922084808,-0.20463427901268005
1701290867353379600,8.274379638671874,-0.25431275367736816,0.5703453421592712,-0.3218671679496765
1701290867363454500,8.284454345703125,-0.3552895486354828,0.955929696559906,-0.28956228494644165
1701290867373528600,8.294528564453126,-0.40676364302635193,0.9399475455284119,-0.2423148900270462
1701290867383603500,8.304603515625,-0.36822518706321716,0.6336104869842529,-0.2604571282863617
1701290867393678300,8.31467822265625,-0.36018139123916626,0.29150402545928955,-0.38790059089660645
1701290867403753500,8.32475341796875,-0.4557059109210968,0.24307242035865784,-0.6204626560211182
1701290867413828600,8.33482861328125,-0.5309886932373047,0.31841591000556946,-0.8285969495773315
1701290867423903500,8.344903564453125,-0.5263505578041077,0.16550977528095245,-0.8724388480186462
1701290867433978600,8.354978515625,-0.48705029487609863,-0.04617317020893097,-0.7922977209091187
1701290867444053500,8.365053466796875,-0.4253658950328827,-0.07140186429023743,-0.684871256351471
1701290867454128400,8.37512841796875,-0.3583192229270935,0.09127812832593918,-0.6535418033599854
1701290867464203500,8.38520361328125,-0.2808935046195984,0.08687540888786316,-0.6699207425117493
1701290867474278400,8.3952783203125,-0.20504723489284515,-0.19320978224277496,-0.635209858417511
1701290867484352500,8.4053525390625,-0.16265954077243805,-0.4893009662628174,-0.5627751350402832
1701290867494427400,8.415427490234375,-0.15446339547634125,-0.6175766587257385,-0.4876270890235901
1701290867504502500,8.42550244140625,-0.15632866322994232,-0.5643420815467834,-0.42488330602645874
1701290867514577400,8.435577392578125,-0.15253818035125732,-0.40465065836906433,-0.35972851514816284
1701290867524652500,8.445652587890624,-0.13793858885765076,-0.2568865120410919,-0.28662508726119995
1701290867534727700,8.455727783203125,-0.1316564679145813,-0.1257181316614151,-0.2195560187101364
1701290867544802300,8.46580224609375,-0.12849114835262299,-0.044315535575151443,-0.18778261542320251
1701290867554877400,8.47587744140625,-0.11906968802213669,-0.04111308604478836,-0.2030790150165558
1701290867564952600,8.48595263671875,-0.09439200907945633,-0.11884667724370956,-0.23788771033287048
1701290867575026400,8.4960263671875,-0.028240421786904335,-0.20676641166210175,-0.22844786942005157
1701290867585101600,8.5061015625,0.04789567366242409,-0.15462709963321686,-0.11569376289844513
1701290867595176400,8.516176513671875,0.10848364979028702,-0.07590804994106293,0.11592935025691986
1701290867605251600,8.52625146484375,0.14758607745170593,-0.21808253228664398,0.3090724050998688
1701290867615326500,8.536326416015624,0.1632087230682373,-0.559572696685791,0.3024645745754242
1701290867625401600,8.546401611328125,0.15904578566551208,-0.8144252896308899,0.2570534646511078
1701290867635476500,8.5564765625,0.14041857421398163,-0.8740825057029724,0.2675745487213135
1701290867645551400,8.56655126953125,0.11011737585067749,-0.6788151264190674,0.3531445860862732
1701290867655626500,8.57662646484375,0.13908803462982178,-0.23425628244876862,0.5149673223495483
1701290867665701400,8.586701416015625,0.29459261894226074,0.2921255826950073,0.7232748866081238
1701290867675775500,8.596775390625,0.44355225563049316,0.6715964674949646,0.9242362380027771
1701290867685850600,8.6068505859375,0.4482704997062683,0.7814383506774902,1.1061798334121704
1701290867695925500,8.616925537109376,0.3685770034790039,0.6219866275787354,1.2105515003204346
1701290867706000600,8.627000732421875,0.293302983045578,0.2716792821884155,1.1205428838729858
1701290867716075500,8.637075439453126,0.2422640323638916,-0.04756397008895874,1.0032743215560913
1701290867726150400,8.647150390625,0.25567296147346497,-0.06564901024103165,1.1126033067703247
1701290867736225500,8.6572255859375,0.3880794644355774,0.20868587493896484,1.4858794212341309
1701290867746300400,8.667300537109375,0.5365214347839355,0.36828336119651794,1.7162227630615234
1701290867756375600,8.67737548828125,0.5531877875328064,0.27390599250793457,1.4880751371383667
1701290867766450400,8.687450439453125,0.40390077233314514,0.14280299842357635,1.2279107570648193
1701290867776524500,8.697524658203125,0.1736380159854889,-0.0015142299234867096,1.1119513511657715
1701290867786599400,8.707599365234374,0.037965841591358185,-0.1131337434053421,1.0419296026229858
1701290867796674600,8.717674560546875,0.046147070825099945,-0.12671080231666565,1.0168644189834595
1701290867806749700,8.727749755859374,0.20912718772888184,0.07523631304502487,1.181488275527954
1701290867816824300,8.73782421875,0.586808443069458,0.42607051134109497,1.575033187866211
1701290867826899500,8.7478994140625,1.0676929950714111,0.6373803019523621,1.892011284828186
1701290867836974600,8.757974609375,1.4702132940292358,0.6394027471542358,1.9358711242675781
1701290867847049500,8.768049560546874,1.7755002975463867,0.5415659546852112,1.8557109832763672
1701290867857124600,8.77812451171875,1.9407970905303955,0.27665573358535767,1.7275242805480957
1701290867867198500,8.788198486328126,1.8512778282165527,-0.16582468152046204,1.5511014461517334
1701290867877273600,8.798273681640625,1.619264006614685,-0.49291759729385376,1.3682551383972168
1701290867887348500,8.808348388671876,1.5125806331634521,-0.5268914699554443,1.1633237600326538
1701290867897423600,8.818423583984375,1.5041149854660034,-0.1399480104446411,1.0149962902069092
1701290867907498500,8.82849853515625,1.5374633073806763,0.5774074196815491,0.9903119206428528
1701290867917573400,8.838573486328125,1.5085605382919312,1.011505365371704,0.9373725056648254
1701290867927648500,8.8486484375,1.390436053276062,0.835497260093689,0.7419449687004089
1701290867937723400,8.858723388671875,1.253259539604187,0.338657408952713,0.4918603003025055
1701290867947798500,8.868798583984375,1.0563809871673584,-0.25622838735580444,0.2051333636045456
1701290867957873700,8.878873779296875,0.7895863652229309,-0.558939516544342,-0.015420583076775074
1701290867967947500,8.888947509765625,0.5486682057380676,-0.6178756356239319,-0.09659557044506073
1701290867978022700,8.899022705078124,0.37825116515159607,-0.5796470642089844,-0.06907765567302704
1701290867988097500,8.90909765625,0.2647712826728821,-0.43020331859588623,-0.005242117680609226
1701290867998172400,8.91917236328125,0.17201551795005798,-0.1830076426267624,0.04020845517516136
1701290868008247600,8.92924755859375,0.08763984590768814,0.039342425763607025,0.033779218792915344
1701290868018322400,8.939322509765624,-0.013060137629508972,0.13298717141151428,-0.006257681641727686
1701290868028397600,8.9493974609375,-0.1281818151473999,0.12809401750564575,-0.06943578273057938
1701290868038472400,8.959472412109376,-0.23721882700920105,0.0871812179684639,-0.16065172851085663
1701290868048547600,8.969547607421875,-0.3586031198501587,0.04946809634566307,-0.27391961216926575
1701290868058622700,8.979622802734376,-0.48003020882606506,0.038838088512420654,-0.3978828489780426
1701290868068696600,8.989696533203125,-0.5973061919212341,0.03515440598130226,-0.5171754360198975
1701290868078771700,8.999771728515626,-0.7126902937889099,0.019096076488494873,-0.6148071885108948
1701290868088846300,9.009846435546875,-0.8237878680229187,-0.012539979070425034,-0.6824964284896851
1701290868098921500,9.01992138671875,-0.9265350103378296,-0.02171723172068596,-0.7303566336631775
1701290868108996400,9.029996337890625,-1.023442268371582,-0.001257559284567833,-0.7741755843162537
1701290868119071500,9.040071533203125,-1.118812918663025,0.047231413424015045,-0.8123104572296143
1701290868129146600,9.050146728515625,-1.2120217084884644,0.11197603493928909,-0.830930769443512
1701290868139221500,9.060221435546875,-1.294636607170105,0.19332760572433472,-0.8183630704879761
1701290868149296600,9.070296630859374,-1.374164342880249,0.296928346157074,-0.7724000811576843
1701290868159370500,9.08037060546875,-1.4293773174285889,0.4635985493659973,-0.7110908627510071
1701290868169445600,9.090445556640624,-1.4652372598648071,0.698118269443512,-0.6647814512252808
1701290868179520500,9.1005205078125,-1.4510891437530518,0.9092875123023987,-0.6366368532180786
1701290868189595400,9.110595458984376,-1.3861619234085083,1.019587516784668,-0.6230331659317017
1701290868199670500,9.12067041015625,-1.3128832578659058,1.05776846408844,-0.6149302124977112
1701290868209745400,9.130745361328126,-1.2608267068862915,1.0445964336395264,-0.6242907643318176
1701290868219820500,9.140820556640625,-1.2029458284378052,0.9648573994636536,-0.6829788088798523
1701290868229895700,9.150895751953126,-1.085541844367981,0.8739160895347595,-0.7666828036308289
1701290868239970600,9.160970458984375,-0.9249706268310547,0.8458423614501953,-0.8022325038909912
1701290868250045000,9.171044921875,-0.7552124261856079,0.879218339920044,-0.7633949518203735
1701290868260119600,9.18111962890625,-0.5748112201690674,0.8625831604003906,-0.6609061360359192
1701290868270194700,9.191194580078125,-0.39853984117507935,0.7576853036880493,-0.5376344323158264
1701290868280269800,9.201269775390625,-0.2460765242576599,0.6189644932746887,-0.43029993772506714
1701290868290344700,9.2113447265625,-0.13988864421844482,0.56770920753479,-0.35804423689842224
1701290868300419800,9.221419921875,-0.07804764062166214,0.5895537734031677,-0.3480302095413208
1701290868310494700,9.23149462890625,-0.039773255586624146,0.647423505783081,-0.36936211585998535
1701290868320569900,9.24156982421875,-0.030215704813599586,0.7177922129631042,-0.34146949648857117
1701290868330644700,9.251644775390625,-0.0448606014251709,0.8672919869422913,-0.2520287334918976
1701290868340719600,9.2617197265625,-0.06412909924983978,1.0625202655792236,-0.15201078355312347
1701290868350793700,9.271793701171875,-0.06185012310743332,1.2891418933868408,-0.1058988869190216
1701290868360868600,9.28186865234375,-0.07290463894605637,1.4972258806228638,-0.1263202726840973
1701290868370943700,9.29194384765625,-0.11725139617919922,1.6117597818374634,-0.13310033082962036
1701290868381018600,9.3020185546875,-0.17056122422218323,1.533805251121521,-0.06855037808418274
1701290868391093800,9.31209375,-0.17315413057804108,1.3665844202041626,0.06724728643894196
1701290868401169000,9.3221689453125,-0.12845218181610107,1.5227417945861816,0.25692853331565857
1701290868411243800,9.332243896484375,0.056522294878959656,1.7950336933135986,0.5820580124855042
1701290868421318700,9.342318603515626,0.3503110408782959,1.407155990600586,0.8118131756782532
1701290868431393800,9.352393798828125,0.6083798408508301,0.34815487265586853,0.5747900605201721
1701290868441467600,9.362467529296875,0.7482160329818726,-0.7377921938896179,0.18703779578208923
1701290868451542800,9.372542724609374,0.7757570147514343,-1.4143532514572144,-0.00800514779984951
1701290868461617700,9.38261767578125,0.678263783454895,-1.429872751235962,-0.06831322610378265
1701290868471692800,9.39269287109375,0.5011693835258484,-0.381258487701416,-0.21911972761154175
1701290868481767700,9.402767578125,0.32060015201568604,1.6339714527130127,0.1292310655117035
1701290868491842800,9.4128427734375,0.2877686619758606,2.0178401470184326,0.7562133073806763
1701290868501918000,9.42291796875,0.3828538954257965,1.0248496532440186,0.9320381283760071
1701290868511992600,9.43299267578125,0.41657599806785583,-0.23613278567790985,0.8267083168029785
1701290868522067700,9.443067626953125,0.3318333923816681,-1.013190507888794,0.7165804505348206
1701290868532142600,9.453142578125,0.19795313477516174,-1.260418176651001,0.6576375961303711
1701290868542216700,9.463216796875,0.0300378929823637,-0.8405922651290894,0.4174473285675049
1701290868552291800,9.473291748046876,-0.13440603017807007,0.22605401277542114,-0.08962230384349823
1701290868562366700,9.48336669921875,-0.21668492257595062,0.6952241659164429,-0.45102816820144653
1701290868572441900,9.49344189453125,-0.19721734523773193,0.8607690930366516,-0.5459570288658142
1701290868582516700,9.503516845703125,-0.09264353662729263,1.30247163772583,-0.4763859510421753
1701290868592592000,9.513591796875,0.010345288552343845,1.8778737783432007,-0.16454368829727173
1701290868602666800,9.523666748046875,0.02214229479432106,1.9775090217590332,0.3079628646373749
1701290868612741600,9.53374169921875,-0.06958086043596268,1.6322746276855469,0.5924302935600281
1701290868622816800,9.543816650390625,-0.24474282562732697,1.3363127708435059,0.51600581407547
1701290868632890600,9.553890625,-0.4342741370201111,1.1496176719665527,0.24703247845172882
1701290868642965800,9.5639658203125,-0.5214519500732422,0.9614834785461426,0.04893270507454872
1701290868653040600,9.57404052734375,-0.5517668128013611,0.8268483877182007,0.04364494979381561
1701290868663115800,9.58411572265625,-0.5562214851379395,0.8409098982810974,0.1301334947347641
1701290868673191000,9.59419091796875,-0.5396125316619873,0.8853814601898193,0.17048625648021698
1701290868683265800,9.604265869140624,-0.5257449150085449,0.7965376377105713,0.10519727319478989
1701290868693340700,9.614340576171875,-0.4815085232257843,0.6046608686447144,-0.04198411479592323
1701290868703415800,9.624415771484376,-0.3978128433227539,0.4160504937171936,-0.21882572770118713
1701290868713490700,9.63449072265625,-0.3019676208496094,0.36472687125205994,-0.36189550161361694
1701290868723565800,9.64456591796875,-0.19176523387432098,0.5276206731796265,-0.4035438895225525
1701290868733639700,9.6546396484375,-0.07808442413806915,0.7939983010292053,-0.271846741437912
1701290868743714800,9.66471484375,0.029787179082632065,0.9336536526679993,-0.017792614176869392
1701290868753789700,9.674789794921875,0.08847407251596451,0.7259249091148376,0.11736676096916199
1701290868763864800,9.68486474609375,0.11346837133169174,0.3899916410446167,0.08212035149335861
1701290868773940000,9.69493994140625,0.12413055449724197,0.19593514502048492,0.026189042255282402
1701290868784014600,9.7050146484375,0.10807515680789948,0.14683790504932404,0.06344133615493774
1701290868794089700,9.71508984375,0.05590534955263138,0.10511664301156998,0.1967494934797287
1701290868804164600,9.72516455078125,-0.02508537657558918,0.09435214847326279,0.37140706181526184
1701290868814239700,9.73523974609375,-0.07635500282049179,0.10563719272613525,0.5414435863494873
1701290868824313600,9.745313720703125,-0.002165725454688072,0.1041085422039032,0.6162863969802856
1701290868834388700,9.755388671875,0.09245232492685318,0.178875133395195,0.6103301048278809
1701290868844463900,9.7654638671875,0.14622899889945984,0.4007313549518585,0.6293466687202454
1701290868854538800,9.775538818359376,0.19946904480457306,0.7144899368286133,0.6834187507629395
1701290868864614000,9.78561376953125,0.23202991485595703,0.8945515751838684,0.7043615579605103
1701290868874688800,9.795688720703126,0.26155903935432434,0.8775734305381775,0.6938082575798035
1701290868884763600,9.805763671875,0.30376163125038147,0.8255395293235779,0.7120059132575989
1701290868894838800,9.8158388671875,0.3562778830528259,0.7771101593971252,0.7884217500686646
1701290868904913700,9.82591357421875,0.4376760721206665,0.7502105832099915,0.9020665287971497
1701290868914987800,9.83598779296875,0.5279899835586548,0.7759021520614624,1.0542359352111816
1701290868925062700,9.846062744140625,0.5942142605781555,0.8846063017845154,1.2224888801574707
1701290868935137800,9.8561376953125,0.5852736234664917,0.9163155555725098,1.2625150680541992
1701290868945213000,9.866212890625,0.4501330852508545,0.9299024939537048,1.130208134651184
1701290868955287800,9.876287841796875,0.2287619709968567,0.9253162741661072,0.9618175625801086
1701290868965362700,9.88636279296875,-0.007631925866007805,0.8604304790496826,0.8831576108932495
1701290868975437600,9.8964375,-0.1555403769016266,0.7269105911254883,0.9019999504089355
1701290868985512700,9.9065126953125,-0.18617898225784302,0.6114442348480225,0.9645629525184631
1701290868995587800,9.916587890625,-0.20948028564453125,0.5317386984825134,0.9111621975898743
1701290869005662700,9.926662841796874,-0.21405453979969025,0.534371018409729,0.8842067718505859
1701290869015736800,9.93673681640625,-0.11477357894182205,0.584493100643158,1.0024601221084595
1701290869025811700,9.946811767578126,0.13156136870384216,0.6833618879318237,1.2374409437179565
1701290869035886800,9.956886962890625,0.5383245348930359,0.9473317861557007,1.5903934240341187
1701290869045962000,9.9669619140625,1.0424941778182983,1.197485089302063,1.8879952430725098
1701290869056036600,9.97703662109375,1.5445796251296997,1.3237539529800415,2.156381845474243
1701290869066111700,9.98711181640625,1.9154818058013916,1.2024626731872559,2.3642704486846924
1701290869076186600,9.9971865234375,2.079183578491211,0.9457573294639587,2.302023410797119
1701290869086261800,10.00726171875,2.046748399734497,0.8132131099700928,2.0333402156829834
1701290869096335600,10.017335693359374,1.8803719282150269,0.8592582941055298,1.7490776777267456
1701290869106410800,10.02741064453125,1.6327053308486938,0.8248113393783569,1.5259095430374146
1701290869116486000,10.03748583984375,1.4156907796859741,0.6685325503349304,1.4067232608795166
1701290869126560800,10.047560791015625,1.3123462200164795,0.454691082239151,1.356255292892456
1701290869136636000,10.057635986328124,1.2720948457717896,0.2743491530418396,1.3024295568466187
1701290869146710800,10.067710693359375,1.2150330543518066,0.2625260353088379,1.1911005973815918
1701290869156785700,10.07778564453125,1.0950579643249512,0.2854827642440796,1.0080578327178955
1701290869166860800,10.08786083984375,0.9514898657798767,0.14569048583507538,0.8319161534309387
1701290869176935700,10.097935791015624,0.8301716446876526,-0.07179621607065201,0.7294751405715942
1701290869187010800,10.1080107421875,0.7073248028755188,-0.25063973665237427,0.731287956237793
1701290869197084700,10.118084716796876,0.5452427864074707,-0.38940343260765076,0.7827773094177246
1701290869207159800,10.128159912109375,0.37284865975379944,-0.39426079392433167,0.8882520794868469
1701290869217235000,10.13823486328125,0.22073572874069214,-0.2326389104127884,1.0148717164993286
1701290869227309800,10.148309814453125,0.12764200568199158,0.02103303372859955,1.089038610458374
1701290869237384700,10.158384765625,0.08528061211109161,0.25296714901924133,1.0605651140213013
1701290869247459800,10.1684599609375,0.03625714033842087,0.36310192942619324,0.9186060428619385
1701290869257535000,10.178534912109376,-0.057738129049539566,0.3856664001941681,0.7267789244651794
1701290869267609900,10.18860986328125,-0.1847591996192932,0.33408257365226746,0.5505860447883606
1701290869277685000,10.19868505859375,-0.301840603351593,0.26591384410858154,0.4307362139225006
1701290869287758800,10.2087587890625,-0.41531339287757874,0.2373274564743042,0.34946587681770325
1701290869297834000,10.218833984375,-0.5389825701713562,0.23256053030490875,0.31418511271476746
1701290869307908900,10.228908935546874,-0.648601770401001,0.22883182764053345,0.31363916397094727
1701290869317983700,10.238983642578125,-0.7559845447540283,0.22123068571090698,0.327199250459671
1701290869328059000,10.249058837890624,-0.8927026987075806,0.1715337038040161,0.332510381937027
1701290869338133800,10.2591337890625,-1.035538673400879,0.08689999580383301,0.33163920044898987
1701290869348209000,10.269208984375,-1.1672828197479248,0.022796116769313812,0.36145302653312683
1701290869358284000,10.279283935546875,-1.2635917663574219,0.08278967440128326,0.3723568022251129
1701290869368359000,10.28935888671875,-1.322581171989441,0.3240594267845154,0.2692301571369171
1701290869378434000,10.29943408203125,-1.3505607843399048,0.7130427360534668,0.06774526834487915
1701290869388508000,10.3095078125,-1.3637170791625977,1.0787831544876099,-0.16188447177410126
1701290869398583000,10.3195830078125,-1.3404078483581543,1.383072853088379,-0.3582354187965393
1701290869408657700,10.32965771484375,-1.2775269746780396,1.6194292306900024,-0.45176082849502563
1701290869418732800,10.33973291015625,-1.286171793937683,1.8386383056640625,-0.42999839782714844
1701290869428808000,10.349807861328125,-1.3617522716522217,2.027087688446045,-0.3440275490283966
1701290869438882800,10.3598828125,-1.3919490575790405,2.170515298843384,-0.22851070761680603
1701290869448958000,10.3699580078125,-1.3380757570266724,2.246628761291504,-0.07729215919971466
1701290869459032800,10.38003271484375,-1.2410160303115845,2.2292802333831787,0.08934076130390167
1701290869469108000,10.39010791015625,-1.1549328565597534,2.101184368133545,0.265857458114624
1701290869479181800,10.400181884765624,-1.123146653175354,1.8801169395446777,0.41385123133659363
1701290869489257000,10.410257080078125,-1.1651225090026855,1.6485674381256104,0.4400058686733246
1701290869499331800,10.420331787109374,-1.250296711921692,1.6191627979278564,0.30450722575187683
1701290869509406700,10.43040673828125,-1.326724886894226,1.9088988304138184,0.04322557896375656
1701290869519481900,10.44048193359375,-1.2947819232940674,2.2878849506378174,-0.17228533327579498
1701290869529557000,10.450556884765625,-1.121559500694275,2.3696610927581787,-0.2124127745628357
1701290869539631900,10.4606318359375,-0.8845268487930298,2.0307743549346924,-0.08610890805721283
1701290869549707000,10.47070703125,-0.6866787672042847,1.4515430927276611,0.14155541360378265
1701290869559782000,10.480781982421876,-0.5388767123222351,0.9682968854904175,0.35378390550613403
1701290869569856000,10.49085595703125,-0.4048565924167633,0.7706977725028992,0.48950710892677307
1701290869579931000,10.500930908203125,-0.29266634583473206,0.7939943671226501,0.5501900911331177
1701290869590005800,10.511005859375,-0.21027852594852448,0.9055246114730835,0.5636239051818848
1701290869600081000,10.521080810546875,-0.1470746099948883,1.036995530128479,0.5601664185523987
1701290869610155800,10.53115576171875,-0.13666218519210815,1.1841000318527222,0.5356171727180481
1701290869620231000,10.54123095703125,-0.17253145575523376,1.2633816003799438,0.4598807096481323
1701290869630305800,10.551305908203124,-0.22754943370819092,1.2700529098510742,0.3543907701969147
1701290869640381000,10.561380859375,-0.3107209801673889,1.13212251663208,0.2881070673465729
1701290869650456000,10.5714560546875,-0.4141693413257599,0.8967142105102539,0.26120463013648987
1701290869660530000,10.581530029296875,-0.5033863186836243,0.7330335974693298,0.21388457715511322
1701290869670605000,10.59160498046875,-0.5843323469161987,0.7453416585922241,0.06705251336097717
1701290869680679700,10.6016796875,-0.6677572131156921,0.9156324863433838,-0.14419279992580414
1701290869690754800,10.6117548828125,-0.7869566082954407,1.307357907295227,-0.12292959541082382
1701290869700830000,10.621829833984375,-0.8662172555923462,1.6295634508132935,0.3334428668022156
1701290869710904800,10.63190478515625,-0.6179637312889099,1.7562623023986816,0.691615879535675
1701290869720980000,10.64197998046875,-0.15706489980220795,1.1431480646133423,0.5728639960289001
1701290869731054800,10.652054931640626,0.27350568771362305,-0.0871860682964325,0.24368983507156372
1701290869741130000,10.6621298828125,0.52706378698349,-1.0288666486740112,-0.014189568348228931
1701290869751203800,10.672203857421875,0.6546976566314697,-0.7308441996574402,-0.35729047656059265
1701290869761279000,10.682279052734375,0.7526898980140686,1.004663348197937,-0.7269328236579895
1701290869771353900,10.692353759765625,0.698201596736908,2.0994205474853516,-0.32207557559013367
1701290869781428700,10.7024287109375,0.7057223916053772,1.3786885738372803,0.2824445366859436
1701290869791504000,10.71250390625,0.6939741373062134,-0.13864214718341827,0.48869651556015015
1701290869801579000,10.7225791015625,0.5740366578102112,-1.0522637367248535,0.452450156211853
1701290869811654000,10.73265380859375,0.3699999153614044,-0.8740953803062439,0.3991198241710663
1701290869821729000,10.74272900390625,0.21138091385364532,-0.093736931681633,0.2825314700603485
1701290869831804000,10.752803955078125,0.1520124077796936,0.42803651094436646,0.18582278490066528
1701290869841878800,10.762878662109374,0.0456765815615654,0.6911064386367798,0.13102491199970245
1701290869851953000,10.772952880859375,-0.08814939111471176,0.832533061504364,0.06047565117478371
1701290869862027800,10.78302783203125,-0.1948644518852234,0.8741469979286194,-0.0864313542842865
1701290869872103000,10.79310302734375,-0.22745701670646667,0.808795154094696,-0.26106175780296326
1701290869882177800,10.803177734375,-0.24724231660366058,0.7103865146636963,-0.3978578746318817
1701290869892253000,10.8132529296875,-0.270763099193573,0.6489098072052002,-0.4442663788795471
1701290869902327800,10.823327880859376,-0.2618023455142975,0.612125039100647,-0.40945249795913696
1701290869912403000,10.83340283203125,-0.27069544792175293,0.579551100730896,-0.3613150715827942
1701290869922478000,10.84347802734375,-0.3146742880344391,0.568770170211792,-0.3539789915084839
1701290869932552700,10.853552734375,-0.3580942153930664,0.578783392906189,-0.39448779821395874
1701290869942627000,10.863626953125,-0.3615170121192932,0.661805272102356,-0.45078620314598083
1701290869952701700,10.87370166015625,-0.33439406752586365,0.8312084078788757,-0.47681915760040283
1701290869962776800,10.88377685546875,-0.31666189432144165,1.015100121498108,-0.43799835443496704
1701290869972852000,10.89385205078125,-0.3017415404319763,1.1268103122711182,-0.3381125032901764
1701290869982926800,10.9039267578125,-0.2971651554107666,1.118058681488037,-0.22642958164215088
1701290869993002000,10.914001953125,-0.2833119332790375,1.0221370458602905,-0.18211831152439117
1701290870003076900,10.924076904296875,-0.2539610266685486,0.9037870764732361,-0.1962050050497055
1701290870013152000,10.934152099609374,-0.21262532472610474,0.7775172591209412,-0.21265774965286255
1701290870023227000,10.944226806640625,-0.16971229016780853,0.6767049431800842,-0.19778142869472504
1701290870033301000,10.954301025390626,-0.1228659525513649,0.6628077626228333,-0.13050837814807892
1701290870043375900,10.9643759765625,-0.06601212173700333,0.6809250116348267,-0.03353342041373253
1701290870053450800,10.97445068359375,-0.006273416802287102,0.6683525443077087,0.05982102453708649
1701290870063526000,10.98452587890625,0.049013882875442505,0.5792524814605713,0.08919919282197952
1701290870073600800,10.994600830078125,0.08975332975387573,0.4056415259838104,0.03932537883520126
1701290870083676000,11.004676025390625,0.12937574088573456,0.19378294050693512,-0.03763413801789284
1701290870093751000,11.0147509765625,0.16361494362354279,0.026044534519314766,-0.11262208968400955
1701290870103826000,11.024825927734375,0.19451622664928436,-0.055156268179416656,-0.15920814871788025
1701290870113900800,11.03490087890625,0.21945379674434662,-0.023308858275413513,-0.16873082518577576
1701290870123975000,11.044974853515624,0.23984253406524658,0.12014647573232651,-0.10720454156398773
1701290870134049800,11.0550498046875,0.27838486433029175,0.2824176549911499,0.04347630962729454
1701290870144125000,11.065125,0.3306596279144287,0.34357360005378723,0.21543508768081665
1701290870154199800,11.07519970703125,0.3379670977592468,0.24974723160266876,0.29386571049690247
1701290870164275000,11.08527490234375,0.3143796920776367,0.17076216638088226,0.31507569551467896
1701290870174349800,11.095349853515625,0.2992526888847351,0.16845454275608063,0.35063689947128296
1701290870184425000,11.105425048828126,0.2991136908531189,0.1287897676229477,0.3851759135723114
1701290870194500000,11.1155,0.31165212392807007,0.05585991591215134,0.40604257583618164
1701290870204574700,11.12557470703125,0.30518585443496704,-0.05224939063191414,0.4164448380470276
1701290870214649000,11.135649169921875,0.28357961773872375,-0.19263260066509247,0.3913629353046417
1701290870224723700,11.1457236328125,0.27031177282333374,-0.23743312060832977,0.3753863275051117
1701290870234798800,11.155798828125,0.28270959854125977,-0.13143451511859894,0.4562377631664276
1701290870244873500,11.16587353515625,0.31452101469039917,0.00976510252803564,0.6007017493247986
1701290870254948600,11.175948486328124,0.3318856358528137,0.0537559948861599,0.6782732009887695
1701290870265023700,11.186023681640625,0.3268115520477295,0.11465752124786377,0.6969757080078125
1701290870275098600,11.1960986328125,0.3070884346961975,0.3264445960521698,0.7311315536499023
1701290870285173800,11.206173828125,0.3128979206085205,0.5479222536087036,0.8243581056594849
1701290870295248600,11.21624853515625,0.3450643718242645,0.6926392316818237,0.8491369485855103
1701290870305322800,11.22632275390625,0.2891708314418793,0.7552830576896667,0.7524324059486389
1701290870315397600,11.236397705078126,0.03652125969529152,0.8732235431671143,0.6984665989875793
1701290870325472500,11.246472412109375,-0.1629454344511032,1.0309245586395264,0.747028112411499
1701290870335547600,11.256547607421876,-0.19512280821800232,1.0264451503753662,0.8412331938743591
1701290870345622500,11.26662255859375,-0.17316798865795135,0.8389430642127991,0.8828155994415283
1701290870355697700,11.27669775390625,-0.1291230320930481,0.7188400626182556,0.8989769816398621
1701290870365772800,11.286772705078125,-0.05779280140995979,0.8135390281677246,0.9688374996185303
1701290870375847700,11.29684765625,0.05191398784518242,1.0270744562149048,1.0756504535675049
1701290870385922600,11.306922607421875,0.18949276208877563,1.2774790525436401,1.2690857648849487
1701290870395996700,11.31699658203125,0.3376486599445343,1.2953909635543823,1.42365562915802
1701290870406071600,11.327071533203124,0.44182002544403076,1.1238149404525757,1.5689399242401123
1701290870416146400,11.337146484375,0.5378789305686951,0.9348672032356262,1.7932777404785156
1701290870426221600,11.3472216796875,0.7136490345001221,0.8112896084785461,2.0186994075775146
1701290870436296700,11.357296630859375,0.9492373466491699,0.6279652714729309,2.091379404067993
1701290870446371600,11.36737158203125,1.1468554735183716,0.502726137638092,2.1101841926574707
1701290870456446700,11.37744677734375,1.2237305641174316,0.3809414207935333,2.1412417888641357
1701290870466521900,11.38752197265625,1.158431887626648,0.2853718400001526,2.1217169761657715
1701290870476596500,11.397596435546875,1.0611358880996704,0.2579450309276581,2.0414843559265137
1701290870486670800,11.4076708984375,1.0180259943008423,0.4479677677154541,1.939953088760376
1701290870496745500,11.417745361328125,1.0351245403289795,0.780896782875061,1.855688214302063
1701290870506820600,11.427820556640626,1.05222487449646,1.0879719257354736,1.811866283416748
1701290870516895500,11.4378955078125,0.9946649074554443,1.316508412361145,1.7522540092468262
1701290870526970600,11.447970703125,0.7882988452911377,1.3945896625518799,1.5628578662872314
1701290870537045800,11.458045654296875,0.5474697351455688,1.2205907106399536,1.3800777196884155
1701290870547120600,11.46812060546875,0.42752665281295776,0.8551213145256042,1.3394889831542969
1701290870557195800,11.47819580078125,0.38465428352355957,0.531757116317749,1.3785176277160645
1701290870567270400,11.4882705078125,0.35118260979652405,0.4352859556674957,1.3663240671157837
1701290870577344800,11.4983447265625,0.32441675662994385,0.5968245267868042,1.314293384552002
1701290870587419600,11.508419677734375,0.3456856608390808,0.9007474184036255,1.303131103515625
1701290870597494500,11.51849462890625,0.41485247015953064,1.2386144399642944,1.3493523597717285
1701290870607569700,11.528569580078125,0.506301760673523,1.4047050476074219,1.4200093746185303
1701290870617644500,11.53864453125,0.5527238249778748,1.3245564699172974,1.4489635229110718
1701290870627719700,11.5487197265625,0.4978870451450348,1.0538643598556519,1.3560594320297241
1701290870637794800,11.558794921875,0.368730366230011,0.6097381114959717,1.1648590564727783
1701290870647869700,11.56886962890625,0.21336494386196136,0.09827571362257004,0.9602916836738586
1701290870657944600,11.578944580078126,0.08337657153606415,-0.2735354006290436,0.8135861158370972
1701290870668018700,11.589018798828125,-0.030071252956986427,-0.38596823811531067,0.7591078877449036
1701290870678093600,11.599093505859376,-0.16039304435253143,-0.3319947421550751,0.7655586004257202
1701290870688168400,11.60916845703125,-0.30933400988578796,-0.2058393955230713,0.7730638384819031
1701290870698243600,11.61924365234375,-0.46000367403030396,-0.052483927458524704,0.7457512617111206
1701290870708318700,11.629318603515625,-0.5717113018035889,0.13556228578090668,0.7223333120346069
1701290870718393600,11.6393935546875,-0.6575968861579895,0.3219665288925171,0.7207847237586975
1701290870728468700,11.64946875,-0.7317416071891785,0.4666173458099365,0.7368972301483154
1701290870738543900,11.6595439453125,-0.8088313341140747,0.597023069858551,0.7448574304580688
1701290870748618500,11.669618408203124,-0.9052733182907104,0.7217410802841187,0.7017276287078857
1701290870758693600,11.679693603515625,-0.9958266019821167,0.8635610938072205,0.6135141849517822
1701290870768767500,11.689767578125,-1.0440200567245483,1.068784236907959,0.5184888243675232
1701290870778842600,11.699842529296875,-1.0629340410232544,1.3056387901306152,0.44157829880714417
1701290870788917500,11.70991748046875,-1.084594964981079,1.5408692359924316,0.3741493821144104
1701290870798992600,11.71999267578125,-1.1359593868255615,1.7277942895889282,0.3071911036968231
1701290870809067800,11.73006787109375,-1.206641435623169,1.8515855073928833,0.25523409247398376
1701290870819142700,11.740142578125,-1.2932649850845337,1.8893754482269287,0.20941388607025146
1701290870829217800,11.7502177734375,-1.3860632181167603,1.8692244291305542,0.15241916477680206
1701290870839292400,11.76029248046875,-1.4994920492172241,1.8287947177886963,0.08969905972480774
1701290870849366800,11.77036669921875,-1.594055414199829,1.8511064052581787,0.06500622630119324
1701290870859441400,11.78044140625,-1.6384668350219727,1.8306549787521362,0.05642072111368179
1701290870869516500,11.7905166015625,-1.6300718784332275,1.6623382568359375,0.01670057699084282
1701290870879591700,11.800591796875,-1.6089471578598022,1.40159273147583,-0.08132239431142807
1701290870889666600,11.81066650390625,-1.5747239589691162,1.1205542087554932,-0.2347700148820877
1701290870899741700,11.82074169921875,-1.4972234964370728,0.8795754313468933,-0.3672654926776886
1701290870909816800,11.83081689453125,-1.3536328077316284,0.6922489404678345,-0.41571372747421265
1701290870919891700,11.8408916015625,-1.1655124425888062,0.5969112515449524,-0.40848588943481445
1701290870929966600,11.850966552734375,-0.9743589758872986,0.6034023761749268,-0.38541239500045776
1701290870940040700,11.861040771484374,-0.8148806691169739,0.7030666470527649,-0.380615770816803
1701290870950115600,11.871115478515625,-0.6923779845237732,0.8921909332275391,-0.4262509047985077
1701290870960190500,11.8811904296875,-0.5459683537483215,1.0346908569335938,-0.4599955379962921
1701290870970265600,11.891265625,-0.4067494571208954,1.0414575338363647,-0.4375735819339752
1701290870980340700,11.9013408203125,-0.29136985540390015,0.9899101853370667,-0.33116060495376587
1701290870990415600,11.91141552734375,-0.1986619532108307,0.9748510718345642,-0.16227984428405762
1701290871000490800,11.92149072265625,-0.1518997848033905,1.024681806564331,-0.0015934950206428766
1701290871010565600,11.931565673828125,-0.1513143628835678,1.1026698350906372,0.05357170104980469
1701290871020640500,11.941640625,-0.17245134711265564,1.1944658756256104,0.06451676040887833
1701290871030714600,11.951714599609375,-0.20495223999023438,1.2746378183364868,0.07935574650764465
1701290871040789500,11.96178955078125,-0.24694283306598663,1.228317379951477,0.09351790696382523
1701290871050864600,11.97186474609375,-0.281402051448822,1.2260262966156006,0.28702545166015625
1701290871060939500,11.981939453125,-0.018861237913370132,1.4770240783691406,0.7826090455055237
1701290871071014700,11.9920146484375,0.4217383563518524,1.456785798072815,1.122615933418274
1701290871081089800,12.00208984375,0.6207965612411499,0.9927552938461304,0.7987752556800842
1701290871091164700,12.01216455078125,0.6862316131591797,0.25979357957839966,0.16756150126457214
1701290871101239800,12.02223974609375,0.7485975027084351,-0.3755445182323456,-0.23058241605758667
1701290871111314400,12.032314453125,0.7397865653038025,-0.5473648309707642,-0.437905490398407
1701290871121389600,12.0423896484375,0.750668466091156,0.4985998868942261,-0.5773835182189941
1701290871131463400,12.05246337890625,0.9279890060424805,2.591163158416748,0.12570635974407196
1701290871141538600,12.06253857421875,1.1698236465454102,2.8288543224334717,1.2083489894866943
1701290871151613700,12.07261376953125,1.0837750434875488,1.2443175315856934,1.5164837837219238
1701290871161688600,12.0826884765625,0.8090261220932007,-0.3192945122718811,1.2583956718444824
1701290871171763700,12.092763671875,0.5298708081245422,-0.7574449181556702,0.8754968047142029
1701290871181838600,12.102838623046875,0.3288457989692688,-0.8136346936225891,0.43049612641334534
1701290871191913700,12.112913818359376,0.23564770817756653,-0.9946484565734863,0.07779822498559952
1701290871201988600,12.122988525390625,0.03865288943052292,-0.9891543388366699,-0.12798155844211578
1701290871212063500,12.1330634765625,-0.26839345693588257,-0.6375090479850769,-0.3504524230957031
1701290871222137600,12.1431376953125,-0.5314503908157349,-0.23513710498809814,-0.6440773606300354
1701290871232212500,12.15321240234375,-0.6280159950256348,-0.051728006452322006,-0.9308742880821228
1701290871242288400,12.163288330078124,-0.4887760281562805,-0.0681956559419632,-1.1110153198242188
1701290871252363500,12.173363525390625,-0.27540886402130127,-0.08180484175682068,-1.1532384157180786
1701290871262438700,12.183438720703125,-0.2117033749818802,0.18265636265277863,-1.1215122938156128
1701290871272513300,12.19351318359375,-0.3007970452308655,1.1455552577972412,-0.8343720436096191
1701290871282588400,12.20358837890625,-0.33629217743873596,1.64080810546875,-0.34723833203315735
1701290871292663300,12.213663330078125,-0.3311774730682373,1.1428519487380981,-0.02289728634059429
1701290871302738400,12.223738525390624,-0.33507660031318665,0.3569706380367279,-0.037128157913684845
1701290871312812300,12.233812255859375,-0.33454450964927673,-0.05385718494653702,-0.26553088426589966
1701290871322887400,12.243887451171876,-0.28176307678222656,-0.16045287251472473,-0.47927191853523254
1701290871332962600,12.253962646484375,-0.20792874693870544,-0.18138328194618225,-0.5392840504646301
1701290871343037400,12.264037353515626,-0.1789492964744568,-0.10930456221103668,-0.49216020107269287
1701290871353112600,12.274112548828125,-0.17418724298477173,0.08101169019937515,-0.3844767212867737
1701290871363187200,12.284187255859376,-0.1911901980638504,0.35339102149009705,-0.2736862897872925
1701290871373262300,12.294262451171875,-0.19142219424247742,0.5251439213752747,-0.22103624045848846
1701290871383337500,12.30433740234375,-0.16670939326286316,0.5106233358383179,-0.21807746589183807
1701290871393412400,12.314412353515625,-0.1653614044189453,0.47699472308158875,-0.1810673326253891
1701290871403486500,12.324486572265625,-0.14053834974765778,0.5284853577613831,-0.055052414536476135
1701290871413561300,12.334561279296874,-0.08695447444915771,0.7411849498748779,0.13285671174526215
1701290871423636500,12.344636474609375,-0.04565337672829628,0.8986458778381348,0.2800022065639496
1701290871433711600,12.354711669921874,-0.015136150643229485,0.798058032989502,0.3640722632408142
1701290871443786500,12.364786376953125,0.013550088740885258,0.5258195996284485,0.41062140464782715
1701290871453861400,12.374861328125,0.015538671053946018,0.28751513361930847,0.48532411456108093
1701290871463936300,12.384936279296875,0.010683462023735046,0.13084004819393158,0.5814341306686401
1701290871474011400,12.395011474609374,0.027956269681453705,0.08453585207462311,0.6678059101104736
1701290871484086500,12.40508642578125,0.06948719918727875,0.12915311753749847,0.7234686613082886
1701290871494160400,12.415160400390626,0.1430528461933136,0.2518434226512909,0.7374735474586487
1701290871504235500,12.425235595703125,0.20504938066005707,0.32166218757629395,0.6636443138122559
1701290871514310400,12.435310302734376,0.21594299376010895,0.30484116077423096,0.5364416837692261
1701290871524385500,12.445385498046875,0.18894973397254944,0.2774100601673126,0.47525209188461304
1701290871534460400,12.45546044921875,0.1537623405456543,0.3364119529724121,0.519863486289978
1701290871544535300,12.465535400390625,0.17170804738998413,0.48336708545684814,0.6573947072029114
1701290871554610400,12.4756103515625,0.25309982895851135,0.6916521191596985,0.8490331172943115
1701290871564685300,12.485685302734375,0.2982252240180969,0.8514870405197144,0.9854005575180054
1701290871574760400,12.495760498046875,0.21743164956569672,0.9713162779808044,0.9962170720100403
