time,seconds_elapsed,z,y,x
1701290859088166700,0.009166748046875,-0.00009507485083304346,0.011392204090952873,0.00869388971477747
1701290859098241800,0.01924169921875,-0.0016559535870328546,0.000006924218723725062,-0.00603525573387742
1701290859108316700,0.029316650390625,-0.005397694651037455,-0.011953332461416721,-0.0184027086943388
1701290859118391800,0.039391845703125,-0.01661333069205284,-0.022892000153660774,-0.026382870972156525
1701290859128467000,0.049467041015625,-0.030238064005970955,-0.029224731028079987,-0.022544190287590027
1701290859138541800,0.059541748046875,-0.03175633028149605,-0.026284867897629738,-0.017307616770267487
1701290859148616700,0.06961669921875,-0.024338895455002785,-0.025840384885668755,-0.01678883284330368
1701290859158691600,0.079691650390625,-0.013154418207705021,-0.01134107168763876,-0.007196926511824131
1701290859168766700,0.0897666015625,0.0021760689560323954,0.0024945829063653946,0.004909005016088486
1701290859178841900,0.099841796875,0.008629174903035164,0.015735553577542305,0.012731241062283516
1701290859188916700,0.109916748046875,0.003912716172635555,0.03347353637218475,0.0014729943359270692
1701290859198992000,0.119991943359375,-0.0001584580895723775,0.054295461624860764,-0.011195396073162556
1701290859209066800,0.130066650390625,0.00008868326403899118,0.058108843863010406,-0.0242608655244112
1701290859219141600,0.1401416015625,0.0009824400767683983,0.04813370853662491,-0.03731328248977661
1701290859229217300,0.15021728515625,0.002270344877615571,0.04144464433193207,-0.03208283334970474
1701290859239291100,0.160291015625,0.005887982901185751,0.041967954486608505,-0.031202394515275955
1701290859249366300,0.1703662109375,0.007126885466277599,0.045335255563259125,-0.03277925029397011
1701290859259441400,0.18044140625,0.015441274270415306,0.054190266877412796,-0.043298471719026566
1701290859269516300,0.190516357421875,0.02225790172815323,0.06957987695932388,-0.04867938905954361
1701290859279591400,0.20059130859375,0.031248999759554863,0.09490121155977249,-0.06363730132579803
1701290859289666000,0.210666015625,0.04300712049007416,0.11028895527124405,-0.08581797033548355
1701290859299741200,0.2207412109375,0.04623034596443176,0.13637541234493256,-0.09662561118602753
1701290859309816300,0.23081640625,0.04105955362319946,0.17045189440250397,-0.08982362598180771
1701290859319891200,0.24089111328125,0.007951666601002216,0.2283838987350464,-0.06984512507915497
1701290859329966300,0.25096630859375,-0.0459216870367527,0.2907034754753113,-0.03815137967467308
1701290859340041200,0.261041259765625,-0.05754105746746063,0.3464791178703308,-0.004355333745479584
1701290859350116400,0.271116455078125,-0.06843631714582443,0.4066404700279236,0.009424393996596336
1701290859360191200,0.281191162109375,-0.09223325550556183,0.4883502423763275,0.004531368613243103
1701290859370266000,0.29126611328125,-0.12572677433490753,0.5809640884399414,-0.010275540873408318
1701290859380341200,0.30134130859375,-0.14203517138957977,0.7117271423339844,-0.03145779296755791
1701290859390416100,0.311416015625,-0.19710135459899902,0.7781540751457214,-0.06754841655492783
1701290859400491300,0.3214912109375,-0.283250093460083,0.8068344593048096,-0.0927557721734047
1701290859410565000,0.331565185546875,-0.31384581327438354,0.8335925936698914,-0.1046057716012001
1701290859420640300,0.34164013671875,-0.29678452014923096,0.8668392300605774,-0.09860780090093613
1701290859430715400,0.35171533203125,-0.16722095012664795,0.9691083431243896,-0.08099737763404846
1701290859440790300,0.361790283203125,0.1568862795829773,1.2813937664031982,-0.029108883813023567
1701290859450865200,0.371865234375,0.23534567654132843,1.371219515800476,-0.15154238045215607
1701290859460940300,0.381940185546875,0.1539485603570938,1.4368939399719238,-0.29545560479164124
1701290859471015200,0.39201513671875,0.05085013061761856,1.4502789974212646,-0.4221946597099304
1701290859481090300,0.40209033203125,0.07803754508495331,1.3412292003631592,-0.4734077751636505
1701290859491165200,0.412165283203125,0.13255324959754944,1.1538046598434448,-0.4001665711402893
1701290859501240300,0.422240234375,0.057493384927511215,0.8170468807220459,-0.28671351075172424
1701290859511315500,0.4323154296875,-0.1464751958847046,0.3910441994667053,-0.21752752363681793
1701290859521390000,0.44239013671875,-0.3536241054534912,0.023249130696058273,-0.24543346464633942
1701290859531465200,0.45246533203125,-0.4543485939502716,-0.23232272267341614,-0.31132620573043823
1701290859541540000,0.4625400390625,-0.46069198846817017,-0.3254809081554413,-0.34764131903648376
1701290859551615200,0.472615234375,-0.450469434261322,-0.2808425724506378,-0.3522086441516876
1701290859561690400,0.4826904296875,-0.47309112548828125,-0.13085629045963287,-0.3288806974887848
1701290859571765200,0.49276513671875,-0.47518038749694824,0.0040456079877913,-0.3243969976902008
1701290859581840400,0.50284033203125,-0.44044557213783264,0.08693543076515198,-0.30511996150016785
1701290859591914200,0.512914306640625,-0.40761810541152954,0.14286793768405914,-0.3089035153388977
1701290859601989400,0.5229892578125,-0.3904164731502533,0.20165854692459106,-0.3271237909793854
1701290859612064300,0.533064208984375,-0.39532601833343506,0.2283647358417511,-0.3586130142211914
1701290859622139100,0.54313916015625,-0.4296525716781616,0.16804467141628265,-0.3746391236782074
1701290859632214300,0.55321435546875,-0.5013640522956848,0.051847219467163086,-0.36661848425865173
1701290859642289200,0.5632890625,-0.5678058862686157,-0.07184116542339325,-0.37125691771507263
1701290859652364300,0.5733642578125,-0.5903250575065613,-0.14273345470428467,-0.40771958231925964
1701290859662439400,0.583439453125,-0.5931189656257629,-0.16180381178855896,-0.4555549919605255
1701290859672514300,0.593514404296875,-0.6298349499702454,-0.1283814013004303,-0.4875001609325409
1701290859682589200,0.603589111328125,-0.6832001209259033,-0.07625189423561096,-0.4980963468551636
1701290859692664000,0.6136640625,-0.7539366483688354,-0.061942461878061295,-0.46452027559280396
1701290859702739200,0.6237392578125,-0.8260079026222229,-0.09826851636171341,-0.41844066977500916
1701290859712814300,0.633814453125,-0.9034720659255981,-0.19833572208881378,-0.38273513317108154
1701290859722889200,0.64388916015625,-0.9733901619911194,-0.3023228347301483,-0.3627294600009918
1701290859732964400,0.65396435546875,-1.040722370147705,-0.3580244481563568,-0.36206260323524475
1701290859743039500,0.66403955078125,-1.1166706085205078,-0.37275704741477966,-0.36226820945739746
1701290859753114000,0.674114013671875,-1.1767696142196655,-0.32763299345970154,-0.3591288626194
1701290859763189200,0.684189208984375,-1.2131601572036743,-0.30657830834388733,-0.3614575266838074
1701290859773263000,0.69426318359375,-1.2449185848236084,-0.2866578698158264,-0.36564508080482483
1701290859783338200,0.704338134765625,-1.2970083951950073,-0.2500857412815094,-0.38962340354919434
1701290859793413000,0.7144130859375,-1.3667973279953003,-0.2610190808773041,-0.4253217279911041
1701290859803488300,0.72448828125,-1.472686529159546,-0.30479878187179565,-0.44162002205848694
1701290859813563400,0.7345634765625,-1.5613453388214111,-0.387412965297699,-0.44230949878692627
1701290859823638300,0.74463818359375,-1.650659203529358,-0.45237278938293457,-0.4259217381477356
1701290859833713400,0.75471337890625,-1.7366797924041748,-0.4502902030944824,-0.419164776802063
1701290859843788000,0.7647880859375,-1.869444489479065,-0.4278181791305542,-0.40601301193237305
1701290859853863200,0.77486328125,-1.9885493516921997,-0.6000804901123047,-0.3730366826057434
1701290859863938300,0.784938232421875,-2.0606935024261475,-0.7440629601478577,-0.3427339196205139
1701290859874013200,0.79501318359375,-2.1028361320495605,-0.8062272667884827,-0.30697324872016907
1701290859884088300,0.80508837890625,-2.1130216121673584,-0.7646294832229614,-0.2729271352291107
1701290859894163500,0.81516357421875,-2.0732719898223877,-0.6884868144989014,-0.1902405172586441
1701290859904238300,0.82523828125,-2.0440454483032227,-0.740900456905365,-0.12482475489377975
1701290859914313200,0.835313232421875,-1.9517154693603516,-0.7235147953033447,-0.050346262753009796
1701290859924388000,0.84538818359375,-1.8146138191223145,-0.6535695791244507,0.01209740899503231
1701290859934463200,0.855463134765625,-1.6349153518676758,-0.6159787774085999,0.0636330395936966
1701290859944538400,0.865538330078125,-1.4445606470108032,-0.5598915219306946,0.16154415905475616
1701290859954612200,0.8756123046875,-1.2246426343917847,-0.5567039847373962,0.26333630084991455
1701290859964687400,0.885687255859375,-0.9910227060317993,-0.5263513922691345,0.32299643754959106
1701290859974762200,0.89576220703125,-0.6697836518287659,-0.48266226053237915,0.3427046239376068
1701290859984837400,0.90583740234375,-0.33442166447639465,-0.4085347652435303,0.3265877068042755
1701290859994912300,0.915912353515625,-0.009467004798352718,-0.32803699374198914,0.28171637654304504
1701290860004987100,0.925987060546875,0.2593623399734497,-0.29957231879234314,0.21971531212329865
1701290860015062300,0.936062255859375,0.46625611186027527,-0.3478357195854187,0.179003044962883
1701290860025137200,0.94613720703125,0.546118438243866,-0.3973050117492676,0.16634929180145264
1701290860035212300,0.95621240234375,0.6159675717353821,-0.3554361164569855,0.1016123816370964
1701290860045287400,0.966287353515625,0.6665748357772827,-0.22890667617321014,-0.062009841203689575
1701290860055362300,0.9763623046875,0.6367287635803223,-0.12424898147583008,-0.2142539769411087
1701290860065437400,0.9864375,0.6349287629127502,-0.12531930208206177,-0.3067846894264221
1701290860075512000,0.996511962890625,0.6985905766487122,-0.2804524302482605,-0.3383793830871582
1701290860085587200,1.006587158203125,0.7865681052207947,-0.5377840995788574,-0.3131536543369293
1701290860095662300,1.016662353515625,0.848041832447052,-0.8089980483055115,-0.25759878754615784
1701290860105737200,1.0267373046875,0.8410241603851318,-1.0430363416671753,-0.19124479591846466
1701290860115812400,1.036812255859375,0.7600640654563904,-1.1944762468338013,-0.14685389399528503
1701290860125886200,1.04688623046875,0.6502518057823181,-1.2011737823486328,-0.13632641732692719
1701290860135961300,1.05696142578125,0.5324851870536804,-0.9568095803260803,-0.18253839015960693
1701290860146036200,1.0670361328125,0.4476350247859955,-0.4726077616214752,-0.25554388761520386
1701290860156111400,1.077111328125,0.4217544198036194,-0.004346278961747885,-0.28184792399406433
1701290860166186200,1.087186279296875,0.4149252772331238,0.2780025899410248,-0.22357796132564545
1701290860176261000,1.09726123046875,0.39658570289611816,0.3932844400405884,-0.10840211063623428
1701290860186336300,1.107336181640625,0.30550771951675415,0.4386758804321289,-0.007924501784145832
1701290860196411400,1.117411376953125,0.15640318393707275,0.4851435124874115,0.014936339110136032
1701290860206486300,1.127486328125,0.13702629506587982,0.4676092863082886,-0.019757725298404694
1701290860216561400,1.1375615234375,0.15562129020690918,0.40357115864753723,-0.04853690788149834
1701290860226636300,1.14763623046875,0.10404224693775177,0.2652345895767212,-0.06034243479371071
1701290860236711200,1.157711181640625,0.029326729476451874,0.06671138852834702,-0.0744345560669899
1701290860246786300,1.167786376953125,-0.03846536576747894,-0.1213487982749939,-0.11641795933246613
1701290860256861200,1.177861083984375,-0.08285999298095703,-0.20497338473796844,-0.1688249707221985
1701290860266936300,1.187936279296875,-0.10645613819360733,-0.21104326844215393,-0.1884484738111496
1701290860277010200,1.19801025390625,-0.08722838014364243,-0.17603787779808044,-0.16559456288814545
1701290860287085300,1.208085205078125,-0.06887413561344147,-0.12415097653865814,-0.12037327885627747
1701290860297160200,1.21816015625,-0.06606956571340561,-0.07944235950708389,-0.09614703804254532
1701290860307235300,1.2282353515625,-0.062486812472343445,-0.03128974512219429,-0.11833729594945908
1701290860317310200,1.238310302734375,-0.05031803250312805,0.013861486688256264,-0.1556583046913147
1701290860327385000,1.248385009765625,-0.045943524688482285,0.027234017848968506,-0.15425056219100952
1701290860337460200,1.258460205078125,-0.05421503633260727,0.018085259944200516,-0.13151036202907562
1701290860347535400,1.268535400390625,-0.06077013909816742,-0.0004034689045511186,-0.10998322814702988
1701290860357610200,1.2786103515625,-0.058153051882982254,0.005004878621548414,-0.10550272464752197
1701290860367685400,1.288685302734375,-0.05630641430616379,0.034636273980140686,-0.11585283279418945
1701290860377760300,1.29876025390625,-0.047684699296951294,0.06528792530298233,-0.11503284424543381
1701290860387835400,1.30883544921875,-0.04192241653800011,0.08474338054656982,-0.10248403251171112
1701290860397910300,1.31891015625,-0.040394559502601624,0.08504938334226608,-0.08341766148805618
1701290860407985200,1.328985107421875,-0.036732181906700134,0.05919194966554642,-0.06849303841590881
1701290860418060300,1.339060302734375,-0.033967286348342896,0.040764208883047104,-0.06605571508407593
1701290860428135200,1.34913525390625,-0.02209065482020378,0.03789092227816582,-0.06878598779439926
1701290860438209300,1.359209228515625,-0.007352721411734819,0.03796122968196869,-0.0679183304309845
1701290860448284200,1.3692841796875,0.0020034960471093655,0.05307333916425705,-0.05814506113529205
1701290860458359300,1.379359375,0.007463775109499693,0.06993833929300308,-0.04183266684412956
1701290860468434400,1.389434326171875,0.013597301207482815,0.08137128502130508,-0.02225923351943493
1701290860478509300,1.39950927734375,0.019180085510015488,0.0843239352107048,-0.006581736262887716
1701290860488584200,1.409584228515625,0.026874756440520287,0.10111170262098312,0.0026075011119246483
1701290860498659300,1.419659423828125,0.03876017779111862,0.11977539956569672,0.009947173297405243
1701290860508734200,1.429734130859375,0.037935931235551834,0.1284162998199463,0.025200162082910538
1701290860518809300,1.439809326171875,0.03646133840084076,0.11950429528951645,0.04045288264751434
1701290860528884200,1.44988427734375,0.044372789561748505,0.09099248796701431,0.05432023108005524
1701290860538959400,1.45995947265625,0.0477166548371315,0.06089157983660698,0.06263035535812378
1701290860549034200,1.4700341796875,0.05237052962183952,0.04241962730884552,0.06060902029275894
1701290860559109000,1.480109130859375,0.0594438873231411,0.03832528367638588,0.05747207999229431
1701290860569184300,1.490184326171875,0.06117760390043259,0.019936956465244293,0.047403734177351
1701290860579259100,1.500259033203125,0.05872216820716858,-0.022653913125395775,0.03987790644168854
1701290860589333200,1.510333251953125,0.0620572455227375,-0.07734565436840057,0.04236556589603424
1701290860599408000,1.520408203125,0.07362042367458344,-0.11833463609218597,0.045575741678476334
1701290860609483300,1.530483154296875,0.08876582235097885,-0.12165266275405884,0.04256796836853027
1701290860619558400,1.540558349609375,0.09029687196016312,-0.10780902206897736,0.03981825336813927
1701290860629633300,1.55063330078125,0.08061521500349045,-0.06962861120700836,0.036556944251060486
1701290860639708200,1.560708251953125,0.05678471922874451,-0.03815297782421112,0.026562368497252464
1701290860649783300,1.570783203125,0.03815271332859993,-0.04531022533774376,0.0247237216681242
1701290860659858200,1.580858154296875,0.02388136461377144,-0.0659601092338562,0.023924240842461586
1701290860669933300,1.590933349609375,0.016144614666700363,-0.06524372100830078,0.016470851376652718
1701290860680008200,1.60100830078125,0.00603392394259572,-0.04349740967154503,0.009260343387722969
1701290860690083300,1.611083251953125,0.0020969731267541647,-0.023661121726036072,0.011049188673496246
1701290860700158500,1.621158447265625,-0.006674414500594139,-0.015380287542939186,0.020110860466957092
1701290860710233000,1.631233154296875,-0.012045211158692837,-0.016176041215658188,0.015804795548319817
1701290860720308200,1.64130810546875,-0.01230513583868742,-0.024600151926279068,0.01230513583868742
1701290860730383000,1.651383056640625,-0.009784719906747341,-0.03899373859167099,0.0060027651488780975
1701290860740458200,1.661458251953125,0.004622182343155146,-0.0627422109246254,0.007702128030359745
1701290860750532000,1.671531982421875,0.01818033494055271,-0.07623937726020813,0.011826299130916595
1701290860760607200,1.681607177734375,0.027115240693092346,-0.07138283550739288,0.01822454296052456
1701290860770682400,1.691682373046875,0.03116164728999138,-0.06310200691223145,0.02556767873466015
1701290860780757200,1.70175732421875,0.039326366037130356,-0.057547714561223984,0.02912645973265171
1701290860790832400,1.711832275390625,0.04652329161763191,-0.07284598052501678,0.035775575786828995
1701290860800907300,1.7219072265625,0.0499529130756855,-0.10587690025568008,0.04372990503907204
1701290860810982100,1.731982177734375,0.05552557855844498,-0.11778122931718826,0.05365470424294472
1701290860821057300,1.742057373046875,0.056892577558755875,-0.09996628016233444,0.05764545127749443
1701290860831132200,1.752132080078125,0.07330377399921417,-0.07975102216005325,0.05532450973987579
1701290860841207300,1.762207275390625,0.08874371647834778,-0.057502973824739456,0.044679585844278336
1701290860851282400,1.772282470703125,0.09819074720144272,-0.05509600788354874,0.035107918083667755
1701290860861357300,1.782357421875,0.10586518049240112,-0.10278843343257904,0.027302194386720657
1701290860871432200,1.79243212890625,0.11385998874902725,-0.1690334975719452,0.020195815712213516
1701290860881507000,1.802507080078125,0.1191607415676117,-0.20759792625904083,0.00469595193862915
1701290860891581200,1.812581298828125,0.1296115219593048,-0.19878312945365906,-0.013611149974167347
1701290860901656000,1.822656005859375,0.14045670628547668,-0.1789921224117279,-0.031264711171388626
1701290860911731200,1.832731201171875,0.14648237824440002,-0.17356273531913757,-0.04440474882721901
1701290860921806300,1.842806396484375,0.1500115990638733,-0.17905576527118683,-0.05420651286840439
1701290860931881200,1.852881103515625,0.1461617350578308,-0.1826358586549759,-0.04747803509235382
1701290860941956400,1.862956298828125,0.13225817680358887,-0.1926858276128769,-0.043241746723651886
1701290860952031500,1.873031494140625,0.10625426471233368,-0.16454154253005981,-0.04621782898902893
1701290860962106000,1.883106201171875,0.08322858065366745,-0.09753667563199997,-0.055032357573509216
1701290860972181200,1.89318115234375,0.07281029224395752,-0.0394107885658741,-0.06367538124322891
1701290860982256000,1.903256103515625,0.07263372093439102,-0.023723438382148743,-0.07523403316736221
1701290860992331300,1.913331298828125,0.07884608209133148,-0.038656316697597504,-0.07922664284706116
1701290861002406400,1.923406494140625,0.09151500463485718,-0.056406017392873764,-0.08407039940357208
1701290861012481300,1.933481201171875,0.1023857593536377,-0.07591953128576279,-0.0943845584988594
1701290861022556400,1.943556396484375,0.1124168187379837,-0.10201851278543472,-0.09705410897731781
1701290861032631000,1.953631103515625,0.12184414267539978,-0.12323059141635895,-0.08640333265066147
1701290861042705400,1.963705322265625,0.13234472274780273,-0.12091470509767532,-0.07537784427404404
1701290861052780000,1.973780029296875,0.14523042738437653,-0.11080081760883331,-0.06067027151584625
1701290861062855200,1.983855224609375,0.15717124938964844,-0.10530512034893036,-0.05084799975156784
1701290861072930300,1.993930419921875,0.186905175447464,-0.09615395963191986,-0.057803910225629807
1701290861083005200,2.004005126953125,0.21195033192634583,-0.1000959724187851,-0.07347901165485382
1701290861093080300,2.014080322265625,0.21767985820770264,-0.14037495851516724,-0.09248466044664383
1701290861103155500,2.024155517578125,0.2071438580751419,-0.20904216170310974,-0.11562300473451614
1701290861113230300,2.034230224609375,0.18745803833007812,-0.29647454619407654,-0.13550695776939392
1701290861123305200,2.04430517578125,0.17718037962913513,-0.4174209237098694,-0.15916754305362701
1701290861133380000,2.054380126953125,0.15745699405670166,-0.5011999607086182,-0.1538657248020172
1701290861143455200,2.064455322265625,0.1333383470773697,-0.4561808407306671,-0.10351280868053436
1701290861153530400,2.0745302734375,0.11341977119445801,-0.274026483297348,-0.03381841629743576
1701290861163605200,2.084605224609375,0.10655440390110016,-0.12592996656894684,0.019527895376086235
1701290861173680400,2.094680419921875,0.09805253148078918,-0.12654969096183777,0.03905925154685974
1701290861183755300,2.10475537109375,0.08249993622303009,-0.2225816696882248,0.015752065926790237
1701290861193829400,2.114829345703125,0.05746569111943245,-0.3046629726886749,-0.02624332159757614
1701290861203904300,2.124904296875,0.02616848610341549,-0.3621872365474701,-0.07322148233652115
1701290861213979100,2.134979248046875,0.0024839304387569427,-0.41332072019577026,-0.12007181346416473
1701290861224054300,2.14505419921875,-0.007792143151164055,-0.4335455894470215,-0.14028573036193848
1701290861234129200,2.155129150390625,-0.016220249235630035,-0.3909168839454651,-0.13283181190490723
1701290861244204000,2.1652041015625,-0.006179332733154297,-0.29613178968429565,-0.1097579225897789
1701290861254279200,2.175279052734375,0.025164209306240082,-0.2026793360710144,-0.08721772581338882
1701290861264354300,2.185354248046875,0.0745309591293335,-0.1283065676689148,-0.056109342724084854
1701290861274429200,2.19542919921875,0.11359420418739319,-0.07957445085048676,-0.04486867040395737
1701290861284504000,2.205504150390625,0.1340869665145874,-0.02846067026257515,-0.07123450189828873
1701290861294579000,2.215578857421875,0.1336193084716797,0.06606077402830124,-0.10170186311006546
1701290861304654000,2.225654052734375,0.1323806792497635,0.18894462287425995,-0.11531168222427368
1701290861314729200,2.235729248046875,0.14729517698287964,0.2831653952598572,-0.10127362608909607
1701290861324804000,2.24580419921875,0.15958113968372345,0.3381889760494232,-0.08769283443689346
1701290861334878200,2.255878173828125,0.1616477519273758,0.4247017502784729,-0.06808051466941833
1701290861344953000,2.265953125,0.14570793509483337,0.5116177201271057,-0.049741458147764206
1701290861355028200,2.2760283203125,0.14980094134807587,0.5603525042533875,-0.04310326278209686
1701290861365103400,2.286103271484375,0.16875094175338745,0.5719135999679565,-0.050885818898677826
1701290861375178000,2.296177978515625,0.18678559362888336,0.5029928088188171,-0.035525768995285034
1701290861385253000,2.306253173828125,0.1992771476507187,0.33851227164268494,0.02304220199584961
1701290861395328000,2.316327880859375,0.21038733422756195,0.14192011952400208,0.07449261099100113
1701290861405403100,2.326403076171875,0.21961943805217743,-0.07432030141353607,0.10070983320474625
1701290861415478300,2.336478271484375,0.22671250998973846,-0.2501094341278076,0.09844880551099777
1701290861425553200,2.34655322265625,0.2458057701587677,-0.34310969710350037,0.08814184367656708
1701290861435628300,2.356628173828125,0.28490149974823,-0.3968147337436676,0.12490677833557129
1701290861445703000,2.366702880859375,0.31813403964042664,-0.4386758804321289,0.19942761957645416
1701290861455778000,2.376778076171875,0.3297440707683563,-0.4036657214164734,0.2583058476448059
1701290861465853200,2.386853271484375,0.3289022445678711,-0.29152587056159973,0.3095863461494446
1701290861475928000,2.396927978515625,0.3183377683162689,-0.22786273062229156,0.3648970127105713
1701290861486002200,2.407002197265625,0.30123040080070496,-0.32229840755462646,0.420585572719574
1701290861496077000,2.4170771484375,0.27553677558898926,-0.44972214102745056,0.4609340727329254
1701290861506152200,2.427152099609375,0.24753762781620026,-0.44869762659072876,0.5444278717041016
1701290861516227300,2.437227294921875,0.25263890624046326,-0.2957509756088257,0.6627129912376404
1701290861526302200,2.44730224609375,0.2553659975528717,-0.12301860004663467,0.7508692145347595
1701290861536377000,2.457377197265625,0.23447827994823456,-0.04773210361599922,0.7562615871429443
1701290861546452000,2.467451904296875,0.18621407449245453,-0.004098338540643454,0.7338383197784424
1701290861556527000,2.477527099609375,0.1543712019920349,0.055319447070360184,0.7662748098373413
1701290861566602200,2.487602294921875,0.14970187842845917,0.036730051040649414,0.8311755061149597
1701290861576677000,2.497677001953125,0.1546018272638321,-0.0764380469918251,0.860442578792572
1701290861586752300,2.507752197265625,0.15471979975700378,-0.15403829514980316,0.8682429790496826
1701290861596827100,2.5178271484375,0.15023371577262878,-0.13151781260967255,0.9117411971092224
1701290861606902000,2.527902099609375,0.13129091262817383,0.02665584534406662,0.9408295750617981
1701290861616977200,2.53797705078125,0.05404938757419586,0.23392035067081451,0.7565297484397888
1701290861627051000,2.548051025390625,-0.07822848856449127,0.3574870228767395,0.46340495347976685
1701290861637126100,2.558126220703125,-0.23464925587177277,0.3701319992542267,0.300921767950058
1701290861647201000,2.568200927734375,-0.32083261013031006,0.3131142258644104,0.36790958046913147
1701290861657276200,2.578276123046875,-0.2875708043575287,0.316429078578949,0.6378409266471863
1701290861667351300,2.588351318359375,-0.1529911458492279,0.4960020184516907,0.9537118077278137
1701290861677426200,2.59842626953125,0.025618011131882668,0.7724999189376831,1.1213111877441406
1701290861687501300,2.608501220703125,0.11820493638515472,0.8506479859352112,0.9685347080230713
1701290861697576000,2.618575927734375,0.13479402661323547,0.6575629711151123,0.754494309425354
1701290861707651000,2.628651123046875,0.10353811085224152,0.39790743589401245,0.7453551292419434
1701290861717726200,2.638726318359375,0.04794169217348099,0.2415955811738968,0.8541932106018066
1701290861727801000,2.648801025390625,0.018978483974933624,0.2399047464132309,0.9451308250427246
1701290861737876200,2.658876220703125,0.02606116235256195,0.2761727273464203,1.0475032329559326
1701290861747951000,2.668951171875,0.07721170037984848,0.3466532826423645,1.2163543701171875
1701290861758026200,2.679026123046875,0.201028972864151,0.40058016777038574,1.2910178899765015
1701290861768100000,2.68910009765625,0.30525392293930054,0.25745895504951477,1.1589685678482056
1701290861778175200,2.69917529296875,0.2941301465034485,0.06016187369823456,1.1188064813613892
1701290861788250000,2.70925,0.25593671202659607,-0.09504236280918121,1.2282568216323853
1701290861798325000,2.719324951171875,0.2856658399105072,-0.1773260533809662,1.3674412965774536
1701290861808400100,2.729400146484375,0.4008805751800537,-0.20681655406951904,1.4461207389831543
1701290861818475300,2.739475341796875,0.5888763070106506,-0.2088291049003601,1.4269840717315674
1701290861828550100,2.749550048828125,0.8116803765296936,-0.1385440230369568,1.3684909343719482
1701290861838625300,2.759625244140625,1.0658756494522095,0.030296120792627335,1.323901891708374
1701290861848700200,2.7697001953125,1.2856255769729614,0.19204533100128174,1.2581377029418945
1701290861858775000,2.779775146484375,1.431528925895691,0.25203409790992737,1.1366089582443237
1701290861868850200,2.78985009765625,1.448317050933838,0.3071037530899048,0.9716511368751526
1701290861878925000,2.799925048828125,1.26450777053833,0.46970969438552856,0.8268553018569946
1701290861889000200,2.810000244140625,0.9558023810386658,0.47227007150650024,0.7028172612190247
1701290861899074000,2.820073974609375,0.7709047198295593,0.17693030834197998,0.5848780870437622
1701290861909149200,2.830149169921875,0.7225246429443359,-0.20471613109111786,0.44608721137046814
1701290861919224000,2.84022412109375,0.7017202973365784,-0.5060796737670898,0.2738448679447174
1701290861929299200,2.85029931640625,0.6125243902206421,-0.6167183518409729,0.09824108332395554
1701290861939374300,2.860374267578125,0.4924360513687134,-0.5516314506530762,-0.01912522502243519
1701290861949449000,2.870448974609375,0.427609920501709,-0.36534255743026733,-0.06559924781322479
1701290861959524000,2.880524169921875,0.4178369343280792,-0.1368984580039978,-0.04284173995256424
1701290861969599200,2.89059912109375,0.43771395087242126,0.023249661549925804,0.009150088764727116
1701290861979674000,2.900674072265625,0.4397302269935608,0.05715889483690262,0.01937156729400158
1701290861989749200,2.910749267578125,0.39432865381240845,-0.028001008555293083,-0.057304300367832184
1701290861999824100,2.92082421875,0.31522080302238464,-0.16978903114795685,-0.20436778664588928
1701290862009899300,2.930899169921875,0.22586534917354584,-0.2871231138706207,-0.36152783036231995
1701290862019974100,2.94097412109375,0.14918681979179382,-0.3723650574684143,-0.48562583327293396
1701290862030049000,2.951049072265625,0.07474401593208313,-0.45821496844291687,-0.5801920294761658
1701290862040123100,2.961123046875,-0.007328220177441835,-0.5176863074302673,-0.6507239937782288
1701290862050198000,2.971197998046875,-0.0973782166838646,-0.5306793451309204,-0.6939327120780945
1701290862060273200,2.981273193359375,-0.1997954100370407,-0.4978606402873993,-0.7332513332366943
1701290862070348000,2.99134814453125,-0.3116958439350128,-0.4525781273841858,-0.7611279487609863
1701290862080423200,3.001423095703125,-0.43009331822395325,-0.40490782260894775,-0.7755876183509827
1701290862090498300,3.011498291015625,-0.5239817500114441,-0.33708029985427856,-0.7513778805732727
1701290862100573200,3.0215732421875,-0.5930241942405701,-0.27136972546577454,-0.7029653191566467
1701290862110648000,3.03164794921875,-0.6671112179756165,-0.18388248980045319,-0.6794621348381042
1701290862120723200,3.04172314453125,-0.7191001176834106,-0.07463615387678146,-0.6932834386825562
1701290862130798000,3.051798095703125,-0.7443364858627319,0.09383594989776611,-0.7549552917480469
1701290862140873200,3.061873291015625,-0.7726685404777527,0.31966376304626465,-0.8148058652877808
1701290862150948000,3.071947998046875,-0.802843451499939,0.5484356880187988,-0.8372147679328918
1701290862161023200,3.082023193359375,-0.835109531879425,0.7138674855232239,-0.7979080677032471
1701290862171097000,3.09209716796875,-0.8694283366203308,0.7979986667633057,-0.7116565704345703
1701290862181172200,3.102172119140625,-0.8842536211013794,0.8060142397880554,-0.6205412745475769
1701290862191247000,3.1122470703125,-0.887937605381012,0.7514415383338928,-0.557624101638794
1701290862201322000,3.122322021484375,-0.877489447593689,0.634276807308197,-0.5455416440963745
1701290862211397000,3.132397216796875,-0.808297872543335,0.46029943227767944,-0.5390770435333252
1701290862221472000,3.142471923828125,-0.6854702234268188,0.2622438669204712,-0.48481622338294983
1701290862231546600,3.152546630859375,-0.5026969313621521,0.06538007408380508,-0.40761756896972656
1701290862241621800,3.162621826171875,-0.26498931646347046,-0.07828468829393387,-0.3217567205429077
1701290862251697000,3.17269677734375,-0.065125472843647,-0.10026855021715164,-0.2236804962158203
1701290862261771800,3.182771728515625,0.03732766583561897,-0.07829160988330841,-0.16198357939720154
1701290862271846700,3.1928466796875,0.03593456372618675,-0.024355407804250717,-0.17846640944480896
1701290862281921800,3.202921875,-0.0016080166678875685,0.11353854835033417,-0.28232648968696594
1701290862291996700,3.21299658203125,0.0725833922624588,0.25765496492385864,-0.43960559368133545
1701290862302070800,3.22307080078125,0.18967805802822113,0.3358733355998993,-0.5530487895011902
1701290862312145700,3.233145751953125,0.23211020231246948,0.4070700407028198,-0.5910065770149231
1701290862322220800,3.243220703125,0.17054617404937744,0.42075201869010925,-0.6005814075469971
1701290862332295700,3.253295654296875,0.03989148885011673,0.33450955152511597,-0.5645014643669128
1701290862342370800,3.263370849609375,-0.0943712443113327,0.15067659318447113,-0.5351099967956543
1701290862352446000,3.273446044921875,-0.18968898057937622,-0.056401755660772324,-0.5727109313011169
1701290862362520600,3.2835205078125,-0.21521005034446716,-0.21687957644462585,-0.6627857089042664
1701290862372595700,3.293595703125,-0.1796824187040329,-0.2941890060901642,-0.7567936778068542
1701290862382670600,3.303670654296875,-0.11369966715574265,-0.30715063214302063,-0.7431958317756653
1701290862392745700,3.313745849609375,-0.036318857222795486,-0.2460092306137085,-0.5795698761940002
1701290862402820900,3.32382080078125,0.03058028034865856,-0.08474471420049667,-0.34045931696891785
1701290862412895700,3.333895751953125,0.10649661719799042,0.12076636403799057,-0.15058737993240356
1701290862422971000,3.343970947265625,0.19350555539131165,0.32157695293426514,0.09185376018285751
1701290862433045800,3.354045654296875,0.25412628054618835,0.5931573510169983,0.35323503613471985
1701290862443119900,3.364119873046875,0.21403905749320984,0.6796653270721436,0.10239800810813904
1701290862453194800,3.37419482421875,0.07890520244836807,0.36532071232795715,-0.5044330954551697
1701290862463269600,3.38426953125,0.02714533358812332,-0.20572812855243683,-0.9752730131149292
1701290862473344800,3.3943447265625,0.3324519693851471,-0.07768307626247406,-0.8236222267150879
1701290862483419600,3.404419677734375,1.183908224105835,2.026493787765503,1.1070419549942017
1701290862493494800,3.414494873046875,1.287827968597412,1.9904985427856445,2.024022102355957
1701290862503570000,3.42456982421875,0.7754906415939331,0.04176129400730133,1.748684287071228
1701290862513644800,3.434644775390625,0.2909926772117615,-0.9491381049156189,1.3481379747390747
1701290862523719700,3.4447197265625,-0.09525168687105179,-0.8669076561927795,0.9109970927238464
1701290862533794600,3.454794677734375,-0.2685585021972656,-0.9458107352256775,0.3509367108345032
1701290862543869700,3.46486962890625,-0.1755760908126831,-1.2761812210083008,-0.19220753014087677
1701290862553944800,3.47494482421875,0.10500045120716095,-1.167534351348877,-0.6889389753341675
1701290862564019700,3.485019775390625,0.295544296503067,-0.7757375240325928,-1.0446643829345703
1701290862574093800,3.49509375,0.3940812647342682,-0.1386801153421402,-1.1783936023712158
1701290862584168700,3.505168701171875,0.43814006447792053,1.2172590494155884,-1.0493671894073486
1701290862594243800,3.515243896484375,0.4917233884334564,3.027728796005249,-0.5606316328048706
1701290862604319000,3.525319091796875,0.41229408979415894,3.8727304935455322,0.2053867131471634
1701290862614393600,3.5353935546875,0.13392797112464905,3.2866439819335938,0.47117072343826294
1701290862624468700,3.54546875,-0.20979930460453033,1.7049623727798462,0.020959610119462013
1701290862634543600,3.555543701171875,-0.46313995122909546,-0.15630118548870087,-0.5511124134063721
1701290862644618800,3.56561865234375,-0.6204371452331543,-1.2847474813461304,-0.7982194423675537
1701290862654694000,3.57569384765625,-0.6985607147216797,-1.388564944267273,-0.8080012202262878
1701290862664768800,3.585768798828125,-0.6569427251815796,-0.7867297530174255,-0.6742197275161743
1701290862674844000,3.595843994140625,-0.5613101720809937,-0.07518503069877625,-0.49614769220352173
1701290862684918500,3.60591845703125,-0.49937278032302856,0.4699011743068695,-0.4167993664741516
1701290862694993700,3.61599365234375,-0.466913640499115,0.6867426633834839,-0.4221232831478119
1701290862705068800,3.62606884765625,-0.45184069871902466,0.4653479754924774,-0.4347570538520813
1701290862715142700,3.636142578125,-0.4666343033313751,-0.040706150233745575,-0.45905598998069763
1701290862725217800,3.6462177734375,-0.4834686517715454,-0.49788036942481995,-0.4971027076244354
1701290862735292700,3.656292724609375,-0.41821375489234924,-0.6655910611152649,-0.5260512828826904
1701290862745367800,3.666367919921875,-0.3281445801258087,-0.5625064969062805,-0.5378749370574951
1701290862755443000,3.67644287109375,-0.2546165883541107,-0.3287035822868347,-0.5128958225250244
1701290862765517800,3.686517822265625,-0.1718740165233612,-0.19517162442207336,-0.419720321893692
1701290862775592700,3.6965927734375,-0.09657474607229233,-0.19549812376499176,-0.27897119522094727
1701290862785667600,3.70666748046875,-0.03350123390555382,-0.19753330945968628,-0.13842152059078217
1701290862795742700,3.71674267578125,0.016035957261919975,-0.1801828145980835,-0.04294320568442345
1701290862805817900,3.72681787109375,0.032574720680713654,-0.19478759169578552,0.002092445734888315
1701290862815892700,3.736892822265625,0.03809971362352371,-0.26237115263938904,0.019687151536345482
1701290862825967900,3.7469677734375,0.02124563418328762,-0.31725865602493286,-0.00270630419254303
1701290862836041700,3.757041748046875,-0.0033459956757724285,-0.33275797963142395,-0.02165229804813862
1701290862846116900,3.767116943359375,-0.0034112429711967707,-0.42614758014678955,0.00436092633754015
1701290862856192000,3.77719189453125,0.029684925451874733,-0.6077845096588135,0.06142527610063553
1701290862866266600,3.7872666015625,0.08431567996740341,-0.8228446245193481,0.14202292263507843
1701290862876341800,3.797341796875,0.13689766824245453,-0.9220017790794373,0.24100568890571594
1701290862886416600,3.807416748046875,0.18872757256031036,-0.6331348419189453,0.44457265734672546
1701290862896491800,3.81749169921875,0.30186131596565247,-0.2664189040660858,0.6596628427505493
1701290862906567000,3.82756689453125,0.42342981696128845,-0.24546729028224945,0.6035338044166565
1701290862916641800,3.837641845703125,0.3719024658203125,-0.3819955587387085,0.40313655138015747
1701290862926717000,3.847717041015625,0.16319158673286438,-0.48251792788505554,0.22159923613071442
1701290862936791600,3.85779150390625,-0.06861048936843872,-0.43740662932395935,0.1570655107498169
1701290862946866700,3.86786669921875,-0.15636298060417175,-0.131987065076828,0.3226507604122162
1701290862956941800,3.87794189453125,-0.014600780792534351,0.39615559577941895,0.6833255887031555
1701290862967015700,3.888015625,0.19312125444412231,0.8654266595840454,0.9601113796234131
1701290862977090800,3.8980908203125,0.25773778557777405,0.8891293406486511,0.8852089047431946
1701290862987165700,3.908165771484375,0.17974179983139038,0.5562589764595032,0.6762269139289856
1701290862997240800,3.91824072265625,0.09568764269351959,0.4061472415924072,0.7495786547660828
1701290863007316000,3.92831591796875,0.15130136907100677,0.6819071769714355,1.2431331872940063
1701290863017390800,3.938390869140625,0.3373519480228424,0.8509348034858704,1.5797083377838135
1701290863027465700,3.9484658203125,0.5433700680732727,0.7650622725486755,1.5980281829833984
1701290863037540600,3.95854052734375,0.6881536245346069,0.6467364430427551,1.641396164894104
1701290863047615700,3.96861572265625,0.7242610454559326,0.4618366062641144,1.701097011566162
1701290863057691000,3.97869091796875,0.6063492894172668,0.16005279123783112,1.676658034324646
1701290863067765800,3.988765869140625,0.5043212175369263,-0.2542168200016022,1.6152324676513672
1701290863077841000,3.9988408203125,0.48514324426651,-0.5735194683074951,1.582798957824707
1701290863087914800,4.008914794921875,0.6001289486885071,-0.85962975025177,1.4709091186523438
1701290863097990000,4.018989990234375,0.839008092880249,-1.078033208847046,1.2956275939941406
1701290863108064800,4.029064697265625,1.15678071975708,-0.949272871017456,1.1380363702774048
1701290863118139600,4.0391396484375,1.5175347328186035,-0.4905657172203064,1.0245471000671387
1701290863128214800,4.04921484375,1.8319519758224487,-0.0307477917522192,0.9559536576271057
1701290863138289700,4.05928955078125,1.9508155584335327,0.5357933640480042,0.9607720971107483
1701290863148364800,4.06936474609375,1.7873709201812744,1.1891006231307983,0.8928439021110535
1701290863158440000,4.07943994140625,1.3738994598388672,1.3564091920852661,0.6508962512016296
1701290863168514800,4.089514892578125,1.03146231174469,0.7609303593635559,0.3614697754383087
1701290863178589700,4.099589599609375,0.8588137626647949,-0.264463871717453,0.12876863777637482
1701290863188664600,4.10966455078125,0.7670942544937134,-1.2026859521865845,-0.03785790130496025
1701290863198739700,4.11973974609375,0.6707738637924194,-1.4767062664031982,-0.14462774991989136
1701290863208814800,4.12981494140625,0.5379710793495178,-1.0458805561065674,-0.14697133004665375
1701290863218888700,4.139888671875,0.41435351967811584,-0.2955549657344818,-0.04038870334625244
1701290863228964000,4.149964111328125,0.3282606899738312,0.4052889049053192,0.13384407758712769
1701290863239039000,4.1600390625,0.3212999999523163,0.801112949848175,0.29770544171333313
1701290863249114000,4.170114013671875,0.3595041036605835,0.7612249255180359,0.350010484457016
1701290863259189200,4.180189208984375,0.3455619215965271,0.3443480432033539,0.22904357314109802
1701290863269264000,4.190263916015625,0.25599396228790283,-0.24011965095996857,-0.0015574166318401694
1701290863279339000,4.200339111328125,0.15045635402202606,-0.704289436340332,-0.20538298785686493
1701290863289414100,4.2104140625,0.05079500377178192,-0.9690284132957458,-0.3250795602798462
1701290863299489000,4.220489013671875,-0.0556827038526535,-1.0654181241989136,-0.3983665406703949
1701290863309564200,4.230564208984375,-0.1678670346736908,-0.9809349179267883,-0.4244183897972107
1701290863319639000,4.24063916015625,-0.30676019191741943,-0.8010045289993286,-0.4251347780227661
1701290863329714200,4.250714111328125,-0.4640699326992035,-0.6332219243049622,-0.4233424663543701
1701290863339789000,4.2607890625,-0.6033609509468079,-0.4834555983543396,-0.4506031274795532
1701290863349863200,4.27086328125,-0.717067301273346,-0.4113427996635437,-0.5182077288627625
1701290863359938000,4.28093798828125,-0.8192946314811707,-0.3462173342704773,-0.6328227519989014
1701290863370013000,4.291012939453125,-0.9234649538993835,-0.22195956110954285,-0.736784815788269
1701290863380088000,4.301088134765625,-1.0465620756149292,-0.06149132549762726,-0.8097469210624695
1701290863390163000,4.311162841796875,-1.164077877998352,0.09551267325878143,-0.8531417846679688
1701290863400238000,4.321238037109375,-1.22610342502594,0.2259495109319687,-0.8608809113502502
1701290863410313200,4.331313232421875,-1.2404370307922363,0.3687189221382141,-0.8572675585746765
1701290863420388000,4.34138818359375,-1.2350348234176636,0.5351832509040833,-0.8821606636047363
1701290863430463000,4.351462890625,-1.2711951732635498,0.7235561013221741,-0.9555525779724121
1701290863440537900,4.361537841796875,-1.348591685295105,0.8780724406242371,-1.0410301685333252
1701290863450613000,4.371613037109375,-1.4144450426101685,0.9238865375518799,-1.0838104486465454
1701290863460688100,4.381688232421875,-1.4458296298980713,0.8172857761383057,-1.0723881721496582
1701290863470762000,4.391761962890625,-1.4379301071166992,0.583400309085846,-1.0232211351394653
1701290863480837000,4.401837158203125,-1.3858178853988647,0.31175896525382996,-1.0012832880020142
1701290863490912000,4.411912109375,-1.3061319589614868,0.06917347759008408,-1.0472362041473389
1701290863500987100,4.421987060546875,-1.195563554763794,-0.07277833670377731,-1.1035228967666626
1701290863511062300,4.432062255859375,-1.0340708494186401,-0.16000618040561676,-1.1114522218704224
1701290863521137000,4.442136962890625,-0.7811291217803955,-0.19995519518852234,-1.022676706314087
1701290863531212000,4.4522119140625,-0.38046345114707947,-0.24756452441215515,-0.7620616555213928
1701290863541287000,4.462286865234375,0.0642160028219223,-0.29578930139541626,-0.39872100949287415
1701290863551362000,4.472362060546875,0.37323668599128723,-0.34670522809028625,-0.16222672164440155
1701290863561437200,4.482437255859375,0.4843112826347351,-0.45843228697776794,-0.132864311337471
1701290863571512000,4.492511962890625,0.5946188569068909,-0.5371372103691101,-0.15623673796653748
1701290863581587200,4.502587158203125,0.6963284611701965,-0.45574116706848145,-0.1410980075597763
1701290863591661800,4.512661865234375,0.6873506903648376,-0.14178802073001862,-0.07414799928665161
1701290863601736200,4.522736083984375,0.6056041717529297,0.35981065034866333,0.02851286716759205
1701290863611811000,4.53281103515625,0.45455098152160645,0.9048414826393127,0.0866163820028305
1701290863621886000,4.542885986328125,0.2428150475025177,1.2469428777694702,0.05037102848291397
1701290863631961000,4.552961181640625,0.07501858472824097,1.2706170082092285,-0.06487007439136505
1701290863642036000,4.563035888671875,-0.014743260107934475,1.1122410297393799,-0.2819187641143799
1701290863652111000,4.573111083984375,-0.0377468466758728,1.0277743339538574,-0.6160810589790344
1701290863662186200,4.583186279296875,-0.05170873552560806,1.1292327642440796,-0.9489394426345825
1701290863672261000,4.59326123046875,-0.08738391101360321,0.7210325002670288,-0.9323663115501404
1701290863682336000,4.6033359375,-0.1781444400548935,-0.40274983644485474,-0.5863819718360901
1701290863692411000,4.613410888671875,-0.21813392639160156,-1.5028455257415771,-0.4281201958656311
1701290863702486000,4.623486083984375,-0.1810411512851715,-1.849329948425293,-0.5989201664924622
1701290863712561200,4.63356103515625,-0.0792282447218895,-1.4084465503692627,-0.8819976449012756
1701290863722635000,4.643635009765625,0.07171759754419327,-0.33554789423942566,-1.0590132474899292
1701290863732710100,4.653710205078125,0.3172655701637268,1.0820112228393555,-0.29466092586517334
1701290863742785000,4.663784912109375,0.6219594478607178,1.6000276803970337,1.345516562461853
1701290863752860200,4.673860107421875,0.5869708061218262,0.4584983289241791,1.6828895807266235
1701290863762935000,4.68393505859375,0.2417183518409729,-0.3629515767097473,0.936512291431427
1701290863773010000,4.694010009765625,-0.03969814255833626,-0.5654301047325134,0.23924267292022705
1701290863783085000,4.7040849609375,-0.05422728508710861,-0.9364185929298401,-0.13413117825984955
1701290863793160000,4.714159912109375,0.1613643914461136,-1.306428074836731,-0.3207292854785919
1701290863803235000,4.724235107421875,0.39168813824653625,-1.1630157232284546,-0.3869980573654175
1701290863813310200,4.734310302734375,0.3643723726272583,-0.31688952445983887,-0.46646997332572937
1701290863823385000,4.744385009765625,0.18220575153827667,0.7245252132415771,-0.6748825907707214
1701290863833460000,4.7544599609375,-0.007186806295067072,1.2110909223556519,-0.9669884443283081
1701290863843534000,4.7645341796875,-0.07415758073329926,1.1007238626480103,-1.1211599111557007
1701290863853609000,4.77460888671875,-0.06252942234277725,0.746649444103241,-1.1843215227127075
1701290863863683800,4.784683837890625,-0.14232012629508972,1.194493293762207,-1.3662348985671997
1701290863873759000,4.794759033203125,-0.19137395918369293,2.4559719562530518,-0.7444744110107422
1701290863883834000,4.804834228515625,-0.15951615571975708,1.1220680475234985,0.0132713308557868
1701290863893909000,4.814908935546875,-0.21642045676708221,-0.7608278393745422,-0.12668044865131378
1701290863903984000,4.824984130859375,-0.34181883931159973,-1.5166963338851929,-0.4795290529727936
1701290863914059300,4.835059326171875,-0.4015386402606964,-1.2987408638000488,-0.6881278157234192
1701290863924134100,4.845134033203125,-0.3588969111442566,-0.5118891000747681,-0.6997668743133545
1701290863934209000,4.855208984375,-0.22080375254154205,0.24607715010643005,-0.484988808631897
1701290863944284000,4.865283935546875,-0.07927777618169785,0.5368272066116333,-0.2192694991827011
1701290863954359000,4.875359130859375,0.007174556143581867,0.25801822543144226,-0.10159000754356384
1701290863964433000,4.885432861328125,0.007405185606330633,-0.2892208993434906,-0.1304996907711029
1701290863974508000,4.895508056640625,-0.031439680606126785,-0.7913812398910522,-0.21952995657920837
1701290863984583200,4.905583251953125,-0.06461147964000702,-1.0999693870544434,-0.2823435366153717
1701290863994658000,4.915657958984375,-0.08706539124250412,-1.0881167650222778,-0.2862519919872284
1701290864004733200,4.925733154296875,-0.08062640577554703,-0.6891957521438599,-0.19283735752105713
1701290864014808000,4.93580810546875,-0.031022630631923676,-0.08563341200351715,0.032707877457141876
1701290864024883000,4.945883056640625,0.00512685114517808,0.32269495725631714,0.30811282992362976
1701290864034958000,4.9559580078125,-0.024580176919698715,0.374069482088089,0.48027074337005615
1701290864045033000,4.966032958984375,-0.10389657318592072,0.17927202582359314,0.561654806137085
1701290864055108000,4.976108154296875,-0.1645207703113556,-0.05151698738336563,0.5852307081222534
1701290864065183200,4.986183349609375,-0.14914608001708984,-0.17248842120170593,0.5700951814651489
1701290864075258000,4.996258056640625,-0.06626743823289871,-0.036552686244249344,0.6223176121711731
1701290864085332200,5.006332275390625,0.06076427921652794,0.3105650544166565,0.7557364106178284
1701290864095407000,5.016406982421875,0.18410804867744446,0.4745071232318878,0.8355523943901062
1701290864105482000,5.02648193359375,0.19949926435947418,0.28218960762023926,0.7280182242393494
1701290864115556900,5.036556884765625,0.11138751357793808,-0.02684093452990055,0.5381537675857544
1701290864125632000,5.046632080078125,-0.009581787511706352,-0.24778902530670166,0.37428173422813416
1701290864135707100,5.05670703125,-0.11505547910928726,-0.22390659153461456,0.2643919587135315
1701290864145782000,5.066781982421875,-0.11598439514636993,0.13595090806484222,0.2910906970500946
1701290864155857200,5.076857177734375,0.017047425732016563,0.619340181350708,0.4971970021724701
1701290864165932000,5.08693212890625,0.24210397899150848,0.8996880054473877,0.7813083529472351
1701290864176007000,5.0970068359375,0.43966764211654663,0.7093300223350525,0.9144496321678162
1701290864186082000,5.10708203125,0.5894952416419983,0.42641282081604004,0.9757819771766663
1701290864196157000,5.117156982421875,0.7648934125900269,0.47378087043762207,1.1848281621932983
1701290864206231000,5.12723095703125,1.01220703125,0.6998512744903564,1.5802042484283447
1701290864216306000,5.137305908203125,1.3970327377319336,0.6968885064125061,1.9424428939819336
1701290864226381000,5.147381103515625,1.70317804813385,0.21671873331069946,1.9965494871139526
1701290864236456000,5.1574560546875,1.7612152099609375,-0.4373246133327484,1.9243961572647095
1701290864246531000,5.167531005859375,1.602678894996643,-1.0245041847229004,1.7784134149551392
1701290864256606200,5.177606201171875,1.3444417715072632,-1.4126790761947632,1.559954285621643
1701290864266680800,5.187680908203125,1.1665455102920532,-1.5635133981704712,1.308012843132019
1701290864276756000,5.197755859375,1.1639108657836914,-1.5084376335144043,1.0626119375228882
1701290864286830800,5.207830810546875,1.272524118423462,-1.3161486387252808,0.8857231736183167
1701290864296906000,5.217906005859375,1.3178439140319824,-0.9228066205978394,0.8708211779594421
1701290864306981000,5.227981201171875,1.1804230213165283,-0.29139962792396545,0.940684974193573
1701290864317055000,5.238054931640625,0.9668646454811096,0.38252872228622437,0.897280216217041
1701290864327130000,5.248130126953125,0.8371468186378479,0.7999421954154968,0.752480685710907
1701290864337205000,5.258205078125,0.8256784677505493,0.8241708278656006,0.600956916809082
1701290864347280100,5.268280029296875,0.8269860744476318,0.6452687382698059,0.47617480158805847
1701290864357355000,5.27835498046875,0.742012083530426,0.4274093806743622,0.3630583584308624
1701290864367430000,5.288429931640625,0.6569637656211853,0.2659011781215668,0.29172560572624207
1701290864377505000,5.298505126953125,0.636585533618927,0.27142778038978577,0.30146104097366333
1701290864387580000,5.308579833984375,0.645264208316803,0.43664178252220154,0.32453441619873047
1701290864397655000,5.318655029296875,0.5783922672271729,0.5057742595672607,0.24948813021183014
1701290864407730200,5.328730224609375,0.4075528681278229,0.26528865098953247,0.06053418293595314
1701290864417805000,5.33880517578125,0.21222491562366486,-0.2094067484140396,-0.1709461808204651
1701290864427880000,5.3488798828125,0.029219670221209526,-0.6867770552635193,-0.3756053149700165
1701290864437954000,5.3589541015625,-0.13903218507766724,-0.96601402759552,-0.5101628303527832
1701290864448029000,5.36902880859375,-0.296780526638031,-1.0340372323989868,-0.5990219116210938
1701290864458103800,5.379103759765625,-0.45811429619789124,-0.9626677632331848,-0.6707198023796082
1701290864468179000,5.389178955078125,-0.6085943579673767,-0.8198748826980591,-0.7125897407531738
1701290864478254000,5.399254150390625,-0.7394655346870422,-0.6714966297149658,-0.7321847081184387
1701290864488329000,5.409328857421875,-0.8608700037002563,-0.4980526566505432,-0.7348524332046509
1701290864498404000,5.419404052734375,-0.9608488082885742,-0.33079203963279724,-0.752257227897644
1701290864508479200,5.429479248046875,-1.0356178283691406,-0.20016585290431976,-0.7738887667655945
1701290864518553900,5.439553955078125,-1.0793884992599487,-0.07956353574991226,-0.7891223430633545
1701290864528629000,5.44962890625,-1.1080760955810547,0.09649351239204407,-0.7971317768096924
1701290864538704000,5.459703857421875,-1.153015375137329,0.35466939210891724,-0.7928134799003601
1701290864548779000,5.469779052734375,-1.2388406991958618,0.6306442618370056,-0.7579042315483093
1701290864558852900,5.479852783203125,-1.3313696384429932,0.9040166735649109,-0.7047392725944519
1701290864568928000,5.489927978515625,-1.3886704444885254,1.1946690082550049,-0.6890923976898193
1701290864579003100,5.500003173828125,-1.3861708641052246,1.47261381149292,-0.7198684215545654
1701290864589078000,5.510078125,-1.369201421737671,1.6968327760696411,-0.7872975468635559
1701290864599153200,5.520153076171875,-1.3561538457870483,1.7283811569213867,-0.8904159069061279
1701290864609227800,5.530227783203125,-1.3255151510238647,1.5679794549942017,-0.9771537184715271
1701290864619303000,5.540302978515625,-1.1550846099853516,1.2313964366912842,-0.9497902989387512
1701290864629378000,5.5503779296875,-0.8633454442024231,0.7000417113304138,-0.7964428067207336
1701290864639453000,5.560452880859375,-0.5384341478347778,0.08183255046606064,-0.5747226476669312
1701290864649528000,5.570528076171875,-0.33853864669799805,-0.3773435652256012,-0.4557691216468811
1701290864659603200,5.580603271484375,-0.2612374722957611,-0.5854467153549194,-0.49136412143707275
1701290864669678000,5.590677978515625,-0.13018544018268585,-0.5697699785232544,-0.535275399684906
1701290864679752200,5.600752197265625,0.023750336840748787,-0.4748120605945587,-0.505531370639801
1701290864689827000,5.6108271484375,0.11724060773849487,-0.377025306224823,-0.4413323998451233
1701290864699902000,5.62090185546875,0.1656842976808548,-0.3280947804450989,-0.42854228615760803
1701290864709976800,5.630976806640625,0.19334310293197632,-0.33716896176338196,-0.499855637550354
1701290864720052000,5.641052001953125,0.18296688795089722,-0.39388659596443176,-0.5744829773902893
1701290864730127000,5.651127197265625,0.12116450816392899,-0.45940274000167847,-0.5591482520103455
1701290864740202000,5.661201904296875,0.021704496815800667,-0.43540897965431213,-0.43029120564460754
1701290864750277000,5.671277099609375,-0.10754057765007019,-0.27918902039527893,-0.2860797047615051
1701290864760352000,5.68135205078125,-0.23247158527374268,-0.0935901403427124,-0.21288324892520905
1701290864770427000,5.691427001953125,-0.30883532762527466,0.1121441125869751,-0.19974693655967712
1701290864780502000,5.701501953125,-0.3375878930091858,0.3288330137729645,-0.24486753344535828
1701290864790575900,5.711575927734375,-0.2794116735458374,0.3859780728816986,-0.32514771819114685
1701290864800651000,5.721651123046875,-0.10096655786037445,0.5917202830314636,-0.3523934781551361
1701290864810726000,5.731725830078125,0.08773650974035263,1.340036392211914,-0.11017310619354248
1701290864820801000,5.741801025390625,0.27062085270881653,1.7710018157958984,0.44396066665649414
1701290864830876200,5.751876220703125,0.3833521902561188,1.4079275131225586,0.6751086711883545
1701290864840951000,5.761950927734375,0.40607666969299316,0.5443956851959229,0.33762863278388977
1701290864851026200,5.772026123046875,0.3682003915309906,-0.23327186703681946,-0.11161468178033829
1701290864861100800,5.782100830078125,0.31691083312034607,-0.5165302157402039,-0.46625080704689026
1701290864871176000,5.792176025390625,0.35532107949256897,0.21870571374893188,-0.5006580352783203
1701290864881251000,5.8022509765625,0.4361836910247803,1.1128870248794556,0.31530895829200745
1701290864891326000,5.812325927734375,0.34588897228240967,0.4110892713069916,0.9147012829780579
1701290864901401000,5.822401123046875,0.21409231424331665,-1.1119009256362915,0.9226346015930176
1701290864911475000,5.832474853515625,0.1868889331817627,-1.841249942779541,0.7962284088134766
1701290864921550000,5.842550048828125,0.1534944772720337,-1.4854795932769775,0.6018189787864685
1701290864931625000,5.852625,0.06457153707742691,-0.6524579524993896,0.24424728751182556
1701290864941700000,5.8627001953125,0.05578070878982544,-0.13533279299736023,-0.1623963713645935
1701290864951775000,5.87277490234375,0.04188966006040573,0.0275645162910223,-0.4913969039916992
1701290864961849900,5.882849853515625,-0.06346632540225983,0.04428889974951744,-0.7462073564529419
1701290864971925000,5.892925048828125,-0.15033118426799774,0.03485412150621414,-0.9373019337654114
1701290864982000000,5.903000244140625,-0.1708814650774002,0.2590201199054718,-1.1234097480773926
1701290864992075000,5.913074951171875,-0.2167205959558487,0.9623724222183228,-1.2625963687896729
1701290865002150100,5.923150146484375,-0.2187374085187912,1.8881300687789917,-1.0997231006622314
1701290865012224000,5.93322412109375,-0.14021196961402893,1.967692494392395,-0.5155096650123596
1701290865022299100,5.943299072265625,-0.1276860535144806,0.8675222992897034,-0.1127699539065361
1701290865032374000,5.9533740234375,-0.21402759850025177,-0.40894195437431335,-0.28649887442588806
1701290865042449000,5.963448974609375,-0.3378278315067291,-1.0745223760604858,-0.6379187107086182
1701290865052524000,5.97352392578125,-0.37603968381881714,-1.212304949760437,-0.8281067609786987
1701290865062599000,5.983598876953125,-0.3415413498878479,-0.9764336347579956,-0.7990815043449402
1701290865072674000,5.993674072265625,-0.25515425205230713,-0.4859083890914917,-0.620983898639679
1701290865082749000,6.0037490234375,-0.17239759862422943,0.00863476749509573,-0.4176265299320221
1701290865092824000,6.013823974609375,-0.11689838767051697,0.28351399302482605,-0.2941517233848572
1701290865102899200,6.023899169921875,-0.0828312337398529,0.32276207208633423,-0.2787514626979828
1701290865112973800,6.033973876953125,-0.07097750157117844,0.15333789587020874,-0.31317949295043945
1701290865123049000,6.044049072265625,-0.05374259129166603,-0.16934242844581604,-0.30526724457740784
1701290865133122800,6.054122802734375,-0.037765756249427795,-0.42524051666259766,-0.2038774937391281
1701290865143198000,6.064197998046875,-0.013497965410351753,-0.4983791708946228,-0.03326527774333954
1701290865153273000,6.074273193359375,-0.00695085059851408,-0.44798657298088074,0.10585372895002365
1701290865163348000,6.084347900390625,-0.016287893056869507,-0.3827116787433624,0.2567577660083771
1701290865173423000,6.094423095703125,-0.03702592849731445,-0.3541484773159027,0.4612424671649933
1701290865183498000,6.104498046875,-0.057910703122615814,-0.33663874864578247,0.6521916389465332
1701290865193573000,6.114572998046875,-0.03861849755048752,-0.2948095202445984,0.7350438833236694
1701290865203648000,6.12464794921875,-0.015693210065364838,-0.1684715747833252,0.7005274891853333
1701290865213723000,6.134722900390625,-0.005944175645709038,-0.03579901158809662,0.6223021745681763
1701290865223798000,6.144798095703125,-0.006326605565845966,0.04562154784798622,0.5670410394668579
1701290865233871600,6.15487158203125,-0.008384163491427898,0.06680939346551895,0.5361717939376831
1701290865243946800,6.16494677734375,-0.010662231594324112,0.0065681543201208115,0.47605815529823303
1701290865254021600,6.175021728515625,0.0041132522746920586,-0.1477780044078827,0.3802317678928375
1701290865264096800,6.1850966796875,0.029270537197589874,-0.25562936067581177,0.32079052925109863
1701290865274172000,6.195171875,0.027210582047700882,-0.19586990773677826,0.3197076916694641
1701290865284246800,6.205246826171875,0.017654361203312874,-0.02328747883439064,0.3570941984653473
1701290865294321700,6.21532177734375,0.06291265040636063,0.07821118086576462,0.4269324243068695
1701290865304396800,6.225396728515625,0.15485216677188873,0.11435294151306152,0.5558661818504333
1701290865314471700,6.2354716796875,0.25217846035957336,0.2771964371204376,0.7282642722129822
1701290865324546800,6.245546875,0.25101226568222046,0.4016302525997162,0.7698397040367126
1701290865334621700,6.25562158203125,0.09922511875629425,0.36892983317375183,0.6454429030418396
1701290865344696800,6.26569677734375,-0.10562895983457565,0.27584969997406006,0.49281397461891174
1701290865354770700,6.275770751953125,-0.2199515402317047,0.28336432576179504,0.4732826054096222
1701290865364845800,6.285845703125,-0.12062708288431168,0.5044258832931519,0.7114695906639099
1701290865374921000,6.2959208984375,0.268163800239563,0.9511157274246216,1.1026171445846558
1701290865384995600,6.30599560546875,0.8683737516403198,1.1850662231445312,1.2400157451629639
1701290865395070700,6.31607080078125,1.3920209407806396,0.9489514231681824,1.1193782091140747
1701290865405145600,6.3261455078125,1.6230472326278687,0.6192530989646912,1.1011110544204712
1701290865415220700,6.336220703125,1.5290709733963013,0.27440065145492554,1.159834384918213
1701290865425296000,6.3462958984375,1.1521955728530884,-0.08650612831115723,1.0977121591567993
1701290865435370800,6.356370849609375,0.8244856595993042,-0.47690823674201965,0.918728232383728
1701290865445446000,6.36644580078125,0.8287786245346069,-0.9327260851860046,0.7518191337585449
1701290865455520800,6.376520751953125,0.9294120669364929,-1.2060571908950806,0.627028226852417
1701290865465595000,6.386594970703125,1.064658522605896,-1.207648754119873,0.5038769841194153
1701290865475669800,6.396669677734375,1.1993886232376099,-1.038504719734192,0.38464540243148804
1701290865485744600,6.40674462890625,1.2707427740097046,-0.7194119691848755,0.3736918270587921
1701290865495819800,6.41681982421875,1.2632135152816772,-0.2777019143104553,0.4688769280910492
1701290865505894700,6.426894775390625,1.1322299242019653,0.12482395768165588,0.5806716680526733
1701290865515969800,6.4369697265625,0.9041532874107361,0.3233221471309662,0.603718638420105
1701290865526045000,6.447044921875,0.7059565782546997,0.3302346467971802,0.5427809953689575
1701290865536119800,6.457119873046875,0.580405592918396,0.20274858176708221,0.4277079403400421
1701290865546194700,6.467194580078125,0.49030953645706177,0.03039279393851757,0.31244659423828125
1701290865556269600,6.47726953125,0.41131696105003357,-0.13028982281684875,0.22061306238174438
1701290865566344700,6.4873447265625,0.32541510462760925,-0.1848529428243637,0.1546846479177475
1701290865576418600,6.49741845703125,0.25613537430763245,-0.14057469367980957,0.14521072804927826
1701290865586493700,6.50749365234375,0.23943522572517395,-0.05685050040483475,0.170747771859169
1701290865596568800,6.51756884765625,0.25114914774894714,0.007162305526435375,0.1657458245754242
1701290865606643700,6.527643798828125,0.2691587507724762,-0.023246200755238533,0.10092688351869583
1701290865616718800,6.53771875,0.2496471107006073,-0.15188699960708618,0.006314621306955814
1701290865626794000,6.5477939453125,0.19976849853992462,-0.3198493719100952,-0.0736803486943245
1701290865636868600,6.55786865234375,0.13351678848266602,-0.5263524651527405,-0.15515843033790588
1701290865646943700,6.56794384765625,0.055397212505340576,-0.6857501268386841,-0.2537499666213989
1701290865657018600,6.5780185546875,-0.03038400411605835,-0.676646888256073,-0.3381437063217163
1701290865667093800,6.58809375,-0.11720491945743561,-0.5335997343063354,-0.3903544247150421
1701290865677169000,6.5981689453125,-0.21901915967464447,-0.32806041836738586,-0.3938234746456146
1701290865687242800,6.60824267578125,-0.32673072814941406,-0.17827147245407104,-0.3575291037559509
1701290865697318000,6.61831787109375,-0.4473167955875397,-0.15051281452178955,-0.29387930035591125
1701290865707392800,6.628392822265625,-0.57928067445755,-0.1736104041337967,-0.25061437487602234
1701290865717468000,6.638468017578125,-0.6939659714698792,-0.16702334582805634,-0.23410677909851074
1701290865727542500,6.64854248046875,-0.7953333258628845,-0.11568877846002579,-0.2494300752878189
1701290865737617700,6.65861767578125,-0.895708441734314,-0.011832424439489841,-0.28375235199928284
1701290865747692800,6.66869287109375,-0.9886849522590637,0.11177526414394379,-0.3332514762878418
1701290865757767700,6.678767578125,-1.0731114149093628,0.2352689802646637,-0.3837718963623047
1701290865767842800,6.6888427734375,-1.1524006128311157,0.3685135841369629,-0.4198068678379059
1701290865777918000,6.69891796875,-1.226340889930725,0.524438202381134,-0.43847349286079407
1701290865787991800,6.70899169921875,-1.2906187772750854,0.7128509879112244,-0.43202516436576843
1701290865798067000,6.71906689453125,-1.3386831283569336,0.9263952374458313,-0.4215211272239685
1701290865808141800,6.729141845703125,-1.3793789148330688,1.1933643817901611,-0.43753179907798767
1701290865818216700,6.739216796875,-1.4253214597702026,1.4131776094436646,-0.49941486120224
1701290865828291600,6.74929150390625,-1.4682880640029907,1.3895317316055298,-0.5833238959312439
1701290865838366700,6.75936669921875,-1.5066235065460205,1.0838497877120972,-0.6591020226478577
1701290865848441900,6.76944189453125,-1.4966217279434204,0.5939091444015503,-0.6721709370613098
1701290865858516700,6.779516845703125,-1.361567497253418,0.1329127699136734,-0.6137585043907166
1701290865868591900,6.789591796875,-1.1044222116470337,-0.18015272915363312,-0.4694063663482666
1701290865878666800,6.799666748046875,-0.7774552702903748,-0.349901020526886,-0.3208265006542206
1701290865888740900,6.809740966796875,-0.48503193259239197,-0.4285114109516144,-0.29202574491500854
1701290865898815700,6.819815673828125,-0.28380241990089417,-0.46763110160827637,-0.38789448142051697
1701290865908890600,6.829890625,-0.12985387444496155,-0.41258835792541504,-0.5534027218818665
1701290865918965800,6.8399658203125,0.012168249115347862,-0.24168425798416138,-0.6895539164543152
1701290865929040600,6.85004052734375,0.1532241702079773,-0.040234506130218506,-0.7349315285682678
1701290865939115800,6.86011572265625,0.26834648847579956,0.11642754077911377,-0.7125998735427856
1701290865949191000,6.87019091796875,0.31012776494026184,0.2100568264722824,-0.6294625997543335
1701290865959265800,6.880265869140625,0.27465367317199707,0.24930329620838165,-0.5109143853187561
1701290865969341000,6.8903408203125,0.1811532825231552,0.23385244607925415,-0.39944061636924744
1701290865979415600,6.90041552734375,0.08999566733837128,0.2320667952299118,-0.3339249789714813
1701290865989490700,6.91049072265625,0.04216502979397774,0.269952654838562,-0.30926305055618286
1701290865999565800,6.92056591796875,0.07488329708576202,0.2770156264305115,-0.3387026786804199
1701290866009639700,6.9306396484375,0.2155139148235321,0.28715506196022034,-0.3634495735168457
1701290866019714800,6.94071484375,0.4403981566429138,0.6630224585533142,-0.23565593361854553
1701290866029789700,6.950789794921875,0.6881661415100098,1.1032952070236206,-0.03711594268679619
1701290866039864800,6.96086474609375,0.7944494485855103,0.9776333570480347,-0.05925719812512398
1701290866049940000,6.97093994140625,0.6759297251701355,0.31000232696533203,-0.33895036578178406
1701290866060014800,6.981014892578125,0.45992311835289,-0.3269576132297516,-0.5901146531105042
1701290866070089700,6.99108984375,0.19919219613075256,-0.415242999792099,-0.7303812503814697
1701290866080164600,7.00116455078125,-0.15112826228141785,0.2675051987171173,-0.6096897125244141
1701290866090239700,7.01123974609375,-0.29650917649269104,0.7339978218078613,-0.4264828860759735
1701290866100315000,7.02131494140625,-0.1272575557231903,0.22090654075145721,-0.3666011691093445
1701290866110389800,7.0313896484375,0.04283002018928528,-1.1032201051712036,-0.3082510530948639
1701290866120464000,7.0414638671875,-0.004977447912096977,-2.195791721343994,-0.13331890106201172
1701290866130538800,7.051538818359375,-0.09839048236608505,-2.2410755157470703,0.15512514114379883
1701290866140614000,7.06161376953125,-0.17326578497886658,0.2787610590457916,0.44467997550964355
1701290866150688800,7.071688720703125,-0.19005143642425537,1.8287866115570068,0.3734918236732483
1701290866160763600,7.081763671875,-0.13214924931526184,1.319068193435669,0.18678505718708038
1701290866170838800,7.0918388671875,0.058525893837213516,0.00953651312738657,0.04777311533689499
1701290866180913700,7.10191357421875,0.22016991674900055,-0.7198615074157715,-0.1129145696759224
1701290866190988800,7.11198876953125,0.21047627925872803,-0.4216100871562958,-0.2956002354621887
1701290866201064000,7.12206396484375,0.08675247430801392,0.39721712470054626,-0.47956445813179016
1701290866211138800,7.132138916015625,-0.07346382737159729,1.222811222076416,-0.6190800070762634
1701290866221213000,7.142212890625,-0.2607221305370331,1.8076000213623047,-0.6813963651657104
1701290866231288300,7.152288330078125,-0.4504505395889282,2.0804831981658936,-0.6574990749359131
1701290866241363200,7.16236328125,-0.6271131634712219,1.9668225049972534,-0.5631155371665955
1701290866251438300,7.172438232421875,-0.7821943759918213,1.4710886478424072,-0.4597542881965637
1701290866261513500,7.182513427734375,-0.8749530911445618,0.7955277562141418,-0.4192180335521698
1701290866271588400,7.19258837890625,-0.8987670540809631,0.17872287333011627,-0.44729307293891907
1701290866281663500,7.20266357421875,-0.8895847201347351,-0.2148129642009735,-0.5236621499061584
1701290866291738400,7.21273828125,-0.8498136401176453,-0.2260773479938507,-0.6197729706764221
1701290866301813200,7.222813232421875,-0.7408578395843506,0.009764480404555798,-0.6623441576957703
1701290866311888400,7.232888427734375,-0.551418662071228,0.18068136274814606,-0.584219753742218
1701290866321962200,7.242962158203125,-0.3508291244506836,0.08955518156290054,-0.45032456517219543
1701290866332037400,7.253037353515625,-0.21929533779621124,-0.21818506717681885,-0.37448039650917053
1701290866342112300,7.2631123046875,-0.1292509287595749,-0.4965384006500244,-0.4109068512916565
1701290866352187400,7.2731875,-0.0527777262032032,-0.6453076004981995,-0.45777395367622375
1701290866362262500,7.283262451171875,0.023515978828072548,-0.6255608201026917,-0.4153149127960205
1701290866372337400,7.29333740234375,0.10888733714818954,-0.4626246392726898,-0.2975938618183136
1701290866382412500,7.30341259765625,0.21208110451698303,-0.34239915013313293,-0.11938232183456421
1701290866392487200,7.313487060546875,0.30403923988342285,-0.38835519552230835,0.11035287380218506
1701290866402562300,7.323562255859375,0.3357599079608917,-0.5274174809455872,0.3020501434803009
1701290866412637400,7.333637451171875,0.32939067482948303,-0.6010075211524963,0.42788368463516235
1701290866422712300,7.34371240234375,0.32902929186820984,-0.4779798984527588,0.5395535230636597
1701290866432786400,7.353786376953125,0.3447139859199524,-0.3277136981487274,0.6686659455299377
1701290866442861300,7.363861328125,0.3120702803134918,-0.32478874921798706,0.7514689564704895
1701290866452936400,7.3739365234375,0.26391366124153137,-0.3635750114917755,0.7776273488998413
1701290866463011300,7.38401123046875,0.24113112688064575,-0.29845914244651794,0.7804193496704102
1701290866473086500,7.39408642578125,0.23195892572402954,-0.1966283768415451,0.7636556029319763
1701290866483161300,7.404161376953125,0.23952870070934296,-0.12143242359161377,0.7524124979972839
1701290866493236200,7.414236328125,0.2713811695575714,-0.13655385375022888,0.7505688071250916
1701290866503311400,7.424311279296875,0.33131614327430725,-0.14383625984191895,0.7940502166748047
1701290866513386500,7.434386474609375,0.40973666310310364,-0.04092159867286682,0.8703250288963318
1701290866523461400,7.44446142578125,0.47800466418266296,0.04644233360886574,0.925006091594696
1701290866533536500,7.45453662109375,0.4957413077354431,-0.03368845582008362,0.9184598326683044
1701290866543610400,7.4646103515625,0.4426029920578003,-0.18691955506801605,0.884289026260376
1701290866553685500,7.474685546875,0.3516664206981659,-0.2116754949092865,0.8746915459632874
1701290866563760400,7.484760498046875,0.25116220116615295,-0.11981695145368576,0.8346447944641113
1701290866573835300,7.494835205078125,0.16863615810871124,0.005794239696115255,0.7554570436477661
1701290866583910400,7.504910400390625,0.05272899195551872,0.02316524088382721,0.6522438526153564
1701290866593985300,7.5149853515625,-0.09382769465446472,0.01649428717792034,0.6078236103057861
1701290866604060400,7.525060302734375,-0.15400953590869904,0.118483766913414,0.6511567234992981
1701290866614135300,7.53513525390625,-0.05041097477078438,0.3302101492881775,0.7848753929138184
1701290866624210400,7.54521044921875,0.2611919045448303,0.5881508588790894,0.9658358693122864
1701290866634285600,7.55528564453125,0.7170430421829224,0.8937518000602722,1.1793830394744873
1701290866644359400,7.565359375,1.2455655336380005,1.2514315843582153,1.4595774412155151
1701290866654434600,7.5754345703125,1.72258722782135,1.4140421152114868,1.7437890768051147
1701290866664509200,7.58550927734375,1.9724446535110474,1.1765835285186768,1.913428783416748
1701290866674584300,7.595584228515625,1.8825113773345947,0.652276873588562,1.7773545980453491
1701290866684659500,7.605659423828125,1.5967285633087158,0.004979312419891357,1.439639925956726
1701290866694734300,7.615734375,1.4197572469711304,-0.567920982837677,1.1339963674545288
1701290866704809500,7.6258095703125,1.3094922304153442,-0.9794240593910217,0.8884281516075134
1701290866714884400,7.63588427734375,1.2948558330535889,-1.0903908014297485,0.7042683959007263
1701290866724959500,7.64595947265625,1.3604837656021118,-0.9089155793190002,0.592819094657898
1701290866735034400,7.656034423828125,1.443544626235962,-0.47197553515434265,0.5981358289718628
1701290866745109200,7.666109130859375,1.4682790040969849,0.1020217090845108,0.6963971853256226
1701290866755183400,7.676183349609375,1.339367389678955,0.6415166258811951,0.7493882179260254
1701290866765258200,7.68625830078125,1.1107077598571777,0.8884971141815186,0.6789910197257996
1701290866775333400,7.69633349609375,0.9017724394798279,0.7778220176696777,0.5326263308525085
1701290866785408500,7.706408447265625,0.7037999629974365,0.35992515087127686,0.3509926497936249
1701290866795483400,7.7164833984375,0.5237513780593872,-0.15771372616291046,0.13929398357868195
1701290866805558500,7.72655859375,0.4088061451911926,-0.5633304715156555,0.0002767024270724505
1701290866815633400,7.73663330078125,0.3436143696308136,-0.74261474609375,-0.05236786603927612
1701290866825708300,7.746708251953125,0.3001294732093811,-0.6766200065612793,-0.049849316477775574
1701290866835783400,7.756783447265625,0.22838176786899567,-0.46652883291244507,-0.061100106686353683
1701290866845858300,7.7668583984375,0.10353650897741318,-0.27297186851501465,-0.0906049981713295
1701290866855932400,7.776932373046875,-0.04278075322508812,-0.21687452495098114,-0.13842472434043884
1701290866866007300,7.78700732421875,-0.1761968731880188,-0.28056082129478455,-0.21912968158721924
1701290866876082400,7.79708251953125,-0.28359976410865784,-0.3931520879268646,-0.33570823073387146
1701290866886157300,7.8071572265625,-0.37354031205177307,-0.4763534963130951,-0.47786828875541687
1701290866896232400,7.817232421875,-0.46612057089805603,-0.5165110230445862,-0.6298045516014099
1701290866906307600,7.8273076171875,-0.5835009813308716,-0.5272923111915588,-0.7715741991996765
1701290866916382200,7.83738232421875,-0.7113699913024902,-0.5040993690490723,-0.8763365745544434
1701290866926457300,7.847457275390625,-0.8276271224021912,-0.4351557195186615,-0.9248021245002747
1701290866936532500,7.857532470703125,-0.9145697355270386,-0.36803367733955383,-0.9298996925354004
1701290866946607400,7.867607421875,-0.9782989025115967,-0.3201862573623657,-0.9188427925109863
1701290866956682500,7.8776826171875,-1.0477874279022217,-0.22588106989860535,-0.9174299836158752
1701290866966756400,7.88775634765625,-1.1191284656524658,-0.049794718623161316,-0.8801597952842712
1701290866976831500,7.89783154296875,-1.1800919771194458,0.1462714523077011,-0.8136364817619324
1701290866986906400,7.90790625,-1.1978198289871216,0.3547322452068329,-0.7165524959564209
1701290866996981500,7.9179814453125,-1.1893975734710693,0.5525345206260681,-0.5916523933410645
1701290867007056400,7.928056396484375,-1.1721951961517334,0.7411409616470337,-0.47966912388801575
1701290867017131300,7.93813134765625,-1.1641933917999268,0.9101496934890747,-0.4623546004295349
1701290867027206400,7.948206298828125,-1.1424998044967651,1.0314584970474243,-0.5229566693305969
1701290867037281300,7.95828125,-1.102452278137207,1.0253279209136963,-0.5594081878662109
1701290867047356400,7.9683564453125,-1.0479496717453003,0.8764982223510742,-0.49478816986083984
1701290867057431600,7.978431640625,-0.9594791531562805,0.5702951550483704,-0.32913607358932495
1701290867067505400,7.98850537109375,-0.8384501934051514,0.12424524873495102,-0.12715022265911102
1701290867077580500,7.99858056640625,-0.7080106735229492,-0.25751808285713196,-0.006683735176920891
1701290867087655400,8.008655517578125,-0.6032768487930298,-0.29130029678344727,-0.050396326929330826
1701290867097730300,8.018730224609374,-0.5461456179618835,0.034815769642591476,-0.183395117521286
1701290867107805400,8.028805419921875,-0.5154508352279663,0.5103902816772461,-0.27352768182754517
1701290867117880300,8.03888037109375,-0.4489503800868988,0.8959060311317444,-0.323153018951416
1701290867127955500,8.04895556640625,-0.33158963918685913,1.0956617593765259,-0.33881694078445435
1701290867138030300,8.0590302734375,-0.1897060126066208,1.0677094459533691,-0.3318735361099243
1701290867148105500,8.06910546875,-0.0728457123041153,0.8383489847183228,-0.3366802930831909
1701290867158180400,8.079180419921874,-0.013855627737939358,0.5058187246322632,-0.3522675037384033
1701290867168254500,8.08925439453125,-0.02990596741437912,0.16868248581886292,-0.4055352509021759
1701290867178329300,8.099329345703126,-0.11117099225521088,-0.14023379981517792,-0.4643639326095581
1701290867188404200,8.109404296875,-0.24189358949661255,-0.34487271308898926,-0.5049979090690613
1701290867198479400,8.119479248046876,-0.33279260993003845,-0.41140031814575195,-0.49306777119636536
1701290867208554200,8.12955419921875,-0.31548312306404114,-0.4758927822113037,-0.4416295886039734
1701290867218629400,8.13962939453125,-0.16130979359149933,-0.35244032740592957,-0.3485334813594818
1701290867228704500,8.14970458984375,0.0906611904501915,0.05312926322221756,-0.14441922307014465
1701290867238778600,8.159778564453125,0.38954561948776245,0.20836439728736877,-0.08212629705667496
1701290867248853500,8.169853515625,0.6273685693740845,-0.12891137599945068,-0.3745701313018799
1701290867258928600,8.1799287109375,0.7464065551757812,-0.5546365976333618,-0.7522138357162476
1701290867269002500,8.19000244140625,0.7153112292289734,-0.5167509913444519,-0.8325760364532471
1701290867279077600,8.20007763671875,0.3816429674625397,0.17836575210094452,-0.21865324676036835
1701290867289152500,8.210152587890626,0.2131628692150116,0.5164191722869873,0.48052188754081726
1701290867299227400,8.220227294921875,0.33839190006256104,-0.019944678992033005,0.5606390833854675
1701290867309302500,8.230302490234376,0.27842310070991516,-0.7114711999893188,0.42506954073905945
1701290867319377400,8.24037744140625,0.1212950050830841,-1.059044599533081,0.28802940249443054
1701290867329452500,8.25045263671875,-0.008526909165084362,-0.9726415276527405,0.10975685715675354
1701290867339527700,8.260527587890625,-0.12712545692920685,-0.4177815318107605,-0.12342020869255066
1701290867349602600,8.2706025390625,-0.22055873274803162,0.3429078161716461,-0.29784712195396423
1701290867359677400,8.280677490234375,-0.31919291615486145,0.8663433194160461,-0.3128737509250641
1701290867369751600,8.29075146484375,-0.3971492350101471,1.0010497570037842,-0.2554866373538971
1701290867379826400,8.300826416015624,-0.3892579972743988,0.7783660888671875,-0.24368935823440552
1701290867389901300,8.3109013671875,-0.3479832708835602,0.4100911319255829,-0.32574400305747986
1701290867399976400,8.3209765625,-0.4154837429523468,0.23237144947052002,-0.5310268402099609
1701290867410051600,8.331051513671875,-0.5149552226066589,0.3195098340511322,-0.7667416334152222
1701290867420126500,8.34112646484375,-0.5331491231918335,0.2567516267299652,-0.8730105757713318
1701290867430201600,8.35120166015625,-0.5065718293190002,0.03154727444052696,-0.8337166905403137
1701290867440276700,8.36127685546875,-0.4538196921348572,-0.08319448679685593,-0.7232854962348938
1701290867450351400,8.371351318359375,-0.38400039076805115,0.03604508563876152,-0.6538633108139038
1701290867460426500,8.381426513671874,-0.31048622727394104,0.1403656303882599,-0.668944239616394
1701290867470501400,8.39150146484375,-0.23154081404209137,-0.06136588752269745,-0.6564513444900513
1701290867480575500,8.401575439453126,-0.1769697219133377,-0.3820597529411316,-0.5949168801307678
1701290867490650400,8.411650390625,-0.15545323491096497,-0.5835606455802917,-0.5118486285209656
1701290867500725500,8.4217255859375,-0.1537163257598877,-0.5929493308067322,-0.4487801790237427
1701290867510800600,8.431800537109375,-0.1583251953125,-0.45906612277030945,-0.38353246450424194
1701290867520875500,8.44187548828125,-0.14778520166873932,-0.29868417978286743,-0.3156951069831848
1701290867530950700,8.45195068359375,-0.13254313170909882,-0.1634962558746338,-0.23843388259410858
1701290867541025300,8.462025390625,-0.13026639819145203,-0.058277420699596405,-0.19226691126823425
1701290867551100400,8.472100341796875,-0.12389051914215088,-0.025045698508620262,-0.19293031096458435
1701290867561175600,8.482175537109375,-0.11037364602088928,-0.07176633179187775,-0.22866539657115936
1701290867571249400,8.49224951171875,-0.05685050040483475,-0.1780613511800766,-0.24311597645282745
1701290867581324500,8.502324462890625,0.017065003514289856,-0.1839653104543686,-0.174297496676445
1701290867591399400,8.5123994140625,0.08747845143079758,-0.08323363959789276,0.020442157983779907
1701290867601474600,8.522474609375,0.1345823109149933,-0.12574301660060883,0.257813960313797
1701290867611549700,8.5325498046875,0.15638375282287598,-0.41720202565193176,0.31724053621292114
1701290867621624600,8.54262451171875,0.1621582806110382,-0.731107771396637,0.2663736343383789
1701290867631699500,8.552699462890626,0.14513935148715973,-0.8696025013923645,0.25735723972320557
1701290867641774300,8.5627744140625,0.11760652810335159,-0.7761178612709045,0.30807873606681824
1701290867651849500,8.572849365234376,0.11297741532325745,-0.4130570888519287,0.4450818598270416
1701290867661924600,8.582924560546875,0.2254893183708191,0.11227327585220337,0.6411115527153015
1701290867671998500,8.59299853515625,0.3978312611579895,0.5708613395690918,0.84804767370224
1701290867682073600,8.603073486328125,0.4617151618003845,0.7787604928016663,1.0369212627410889
1701290867692148500,8.6131484375,0.40004515647888184,0.7199879884719849,1.1924197673797607
1701290867702223600,8.6232236328125,0.31644532084465027,0.4229208827018738,1.1737802028656006
1701290867712298500,8.633298583984375,0.25453054904937744,0.06033870950341225,1.0300246477127075
1701290867722373400,8.643373291015624,0.235285222530365,-0.09428122639656067,1.03484046459198
1701290867732448500,8.653448486328125,0.3278942406177521,0.10482468456029892,1.328238844871521
1701290867742523400,8.6635234375,0.48766395449638367,0.35204431414604187,1.6832168102264404
1701290867752598500,8.6735986328125,0.5636806488037109,0.33538544178009033,1.605096459388733
1701290867762673700,8.683673583984374,0.47265490889549255,0.20458216965198517,1.3039859533309937
1701290867772747500,8.69374755859375,0.2547007203102112,0.0573439821600914,1.1456482410430908
1701290867782822700,8.70382275390625,0.07144276052713394,-0.06690286844968796,1.0650854110717773
1701290867792897500,8.7138974609375,0.023857928812503815,-0.13156095147132874,1.014060378074646
1701290867802972700,8.72397265625,0.1232026219367981,-0.017413876950740814,1.0904160737991333
1701290867813047300,8.73404736328125,0.41978928446769714,0.3017433285713196,1.4103474617004395
1701290867823122400,8.744122314453126,0.8913296461105347,0.6024808287620544,1.8084025382995605
1701290867833197600,8.754197509765625,1.3336255550384521,0.6631457209587097,1.9397921562194824
1701290867843272400,8.7642724609375,1.6690983772277832,0.6013263463973999,1.8908531665802002
1701290867853347600,8.77434765625,1.905220866203308,0.4071275591850281,1.7813549041748047
1701290867863421400,8.78442138671875,1.912405252456665,0.020953752100467682,1.6199162006378174
1701290867873496600,8.79449658203125,1.6997244358062744,-0.39765387773513794,1.435703992843628
1701290867883571700,8.80457177734375,1.5346076488494873,-0.5453985929489136,1.2379456758499146
1701290867893646600,8.814646484375,1.5008102655410767,-0.32775869965553284,1.0551209449768066
1701290867903721500,8.824721435546875,1.5242592096328735,0.3008354604244232,0.9890522360801697
1701290867913796400,8.83479638671875,1.5307340621948242,0.9452810287475586,0.9735965728759766
1701290867923871500,8.84487158203125,1.4373021125793457,0.958186149597168,0.8256046772003174
1701290867933946600,8.854946533203124,1.3065955638885498,0.5601674318313599,0.5929650664329529
1701290867944021500,8.865021484375,1.1417256593704224,-0.04259033873677254,0.3108103275299072
1701290867954096600,8.8750966796875,0.8915325999259949,-0.4790147840976715,0.05199236050248146
1701290867964170500,8.88517041015625,0.6305004358291626,-0.6026499271392822,-0.082395538687706
1701290867974245600,8.89524560546875,0.4341493248939514,-0.5936609506607056,-0.08862867206335068
1701290867984320500,8.905320556640625,0.3032618761062622,-0.49343234300613403,-0.027514981105923653
1701290867994395400,8.9153955078125,0.20290251076221466,-0.27154096961021423,0.026936542242765427
1701290868004470500,8.925470458984375,0.11940788477659225,-0.018990734592080116,0.04360393434762955
1701290868014545400,8.93554541015625,0.027090739458799362,0.12429851293563843,0.012283564545214176
1701290868024620500,8.94562060546875,-0.08657830208539963,0.14772793650627136,-0.04608999565243721
1701290868034695700,8.95569580078125,-0.19708509743213654,0.11313454061746597,-0.12229661643505096
1701290868044770600,8.9657705078125,-0.3087503910064697,0.06883525848388672,-0.22857032716274261
1701290868054845700,8.975845703125,-0.433395653963089,0.04885941743850708,-0.3497351109981537
1701290868064919600,8.98591943359375,-0.5550991892814636,0.048948898911476135,-0.47474202513694763
1701290868074994700,8.99599462890625,-0.6724814772605896,0.038235802203416824,-0.5810031890869141
1701290868085069300,9.0060693359375,-0.7822047472000122,0.009675530716776848,-0.6625297665596008
1701290868095144400,9.01614453125,-0.8886116147041321,-0.00965608935803175,-0.7171328067779541
1701290868105219600,9.026219482421874,-0.9871083498001099,-0.0018394453218206763,-0.7603761553764343
1701290868115294500,9.03629443359375,-1.0833851099014282,0.03834499046206474,-0.8023291826248169
1701290868125369600,9.04636962890625,-1.1786613464355469,0.09812656790018082,-0.8295680284500122
1701290868135444500,9.056444580078125,-1.2694764137268066,0.17167535424232483,-0.8283059597015381
1701290868145519600,9.06651953125,-1.3499752283096313,0.2625780999660492,-0.7953029870986938
1701290868155593500,9.076593505859375,-1.4138197898864746,0.40039587020874023,-0.7384461164474487
1701290868165668600,9.086668701171876,-1.456161618232727,0.6164717078208923,-0.6814514994621277
1701290868175743500,9.096743408203125,-1.4657961130142212,0.8547583222389221,-0.6461710333824158
1701290868185818400,9.106818359375,-1.4142102003097534,0.9990145564079285,-0.6252292394638062
1701290868195893500,9.1168935546875,-1.3388997316360474,1.0622444152832031,-0.6174629330635071
1701290868205968600,9.12696875,-1.2766478061676025,1.0690921545028687,-0.6142767667770386
1701290868216043500,9.13704345703125,-1.2332019805908203,1.0123343467712402,-0.6554843783378601
1701290868226118700,9.14711865234375,-1.1380538940429688,0.9134506583213806,-0.7358732223510742
1701290868236193500,9.157193603515625,-0.9891478419303894,0.8567202687263489,-0.7977360486984253
1701290868246268000,9.167267822265625,-0.8232778906822205,0.8760910630226135,-0.7840583324432373
1701290868256342500,9.177342529296874,-0.6464146971702576,0.8883727192878723,-0.702492892742157
1701290868266417700,9.187417724609375,-0.46191781759262085,0.8146407604217529,-0.5849121809005737
1701290868276492800,9.197492919921874,-0.3043377995491028,0.6720191240310669,-0.46877041459083557
1701290868286567700,9.207567626953125,-0.1733187884092331,0.5843595862388611,-0.38158437609672546
1701290868296642800,9.217642822265624,-0.09987040609121323,0.5824639797210693,-0.35010021924972534
1701290868306718000,9.227718017578125,-0.053524743765592575,0.6346691250801086,-0.359576016664505
1701290868316792800,9.237792724609376,-0.03143009543418884,0.6948933005332947,-0.3596585690975189
1701290868326867700,9.24786767578125,-0.035597674548625946,0.8099088072776794,-0.2922947108745575
1701290868336942600,9.257942626953126,-0.059838034212589264,0.997556746006012,-0.1887081265449524
1701290868347016700,9.2680166015625,-0.06208920478820801,1.210253357887268,-0.11851759254932404
1701290868357091600,9.278091552734375,-0.0683702677488327,1.433387041091919,-0.11661370098590851
1701290868367166700,9.288166748046875,-0.09724346548318863,1.5990124940872192,-0.13860635459423065
1701290868377241900,9.298241943359375,-0.15580637753009796,1.6014388799667358,-0.10079718381166458
1701290868387316700,9.308316650390625,-0.1799228936433792,1.4204707145690918,0.010962103493511677
1701290868397392000,9.318391845703125,-0.15635818243026733,1.4289041757583618,0.16901032626628876
1701290868407466800,9.328466796875,-0.03646799549460411,1.7447925806045532,0.4480997622013092
1701290868417541600,9.338541748046875,0.23671454191207886,1.662003993988037,0.7645567655563354
1701290868427616800,9.34861669921875,0.5213585495948792,0.7974750399589539,0.7159621119499207
1701290868437690600,9.358690673828125,0.7086828947067261,-0.3541492819786072,0.314558744430542
1701290868447765800,9.368765869140624,0.7792686223983765,-1.2229797840118408,0.03905419260263443
1701290868457840600,9.378840576171875,0.7312307953834534,-1.494065284729004,-0.04434562474489212
1701290868467915800,9.388915771484376,0.5637869238853455,-0.9946469664573669,-0.15627536177635193
1701290868477991000,9.398990966796875,0.38339266180992126,1.0386919975280762,-0.0881466343998909
1701290868488065800,9.409065673828126,0.27317535877227783,2.0831594467163086,0.5524978041648865
1701290868498141000,9.419140869140625,0.3423703908920288,1.503765344619751,0.9166541695594788
1701290868508215600,9.429215576171876,0.41990166902542114,0.2168380320072174,0.8768292665481567
1701290868518290700,9.439290771484375,0.3732207119464874,-0.7918859124183655,0.7464070916175842
1701290868528365800,9.44936572265625,0.24681325256824493,-1.1941286325454712,0.6856718063354492
1701290868538439700,9.459439697265625,0.09366337209939957,-1.1205742359161377,0.5498761534690857
1701290868548514800,9.469514892578125,-0.08100297302007675,-0.1440858095884323,0.10998561978340149
1701290868558589700,9.479589599609374,-0.19432447850704193,0.6123733520507812,-0.3513449728488922
1701290868568664800,9.489664794921875,-0.21760396659374237,0.7937325239181519,-0.5327414274215698
1701290868578739700,9.49973974609375,-0.13925082981586456,1.1091703176498413,-0.5233873128890991
1701290868588814800,9.50981494140625,-0.02076573297381401,1.6924396753311157,-0.3181750476360321
1701290868598889700,9.5198896484375,0.031122500076889992,2.0267953872680664,0.13365685939788818
1701290868608964600,9.529964599609375,-0.025800704956054688,1.790686011314392,0.5228469371795654
1701290868619039700,9.540039794921874,-0.17362211644649506,1.4364204406738281,0.5770968794822693
1701290868629113600,9.550113525390625,-0.37168726325035095,1.2286688089370728,0.3518613576889038
1701290868639188700,9.560188720703126,-0.5007248520851135,1.0422712564468384,0.10239721089601517
1701290868649263900,9.570263916015625,-0.5426086783409119,0.873301088809967,0.025772208347916603
1701290868659338800,9.5803388671875,-0.5627432465553284,0.8281615972518921,0.09682720899581909
1701290868669414000,9.590413818359375,-0.5443010926246643,0.8893807530403137,0.16633650660514832
1701290868679488800,9.60048876953125,-0.5325589776039124,0.8592643737792969,0.14330150187015533
1701290868689563600,9.610563720703125,-0.5043199062347412,0.6928325295448303,0.0199273694306612
1701290868699638800,9.620638671875,-0.43118149042129517,0.48804983496665955,-0.157226100564003
1701290868709713700,9.630713623046875,-0.3386225402355194,0.36914634704589844,-0.3177545368671417
1701290868719788800,9.640788818359376,-0.23469001054763794,0.4532790780067444,-0.40504202246665955
1701290868729862700,9.650862548828124,-0.12028193473815918,0.7050066590309143,-0.34356269240379333
1701290868739937800,9.660937744140625,-0.005118329077959061,0.9259616732597351,-0.11549250781536102
1701290868750013000,9.671012939453124,0.06968586891889572,0.8456622958183289,0.09321889281272888
1701290868760087800,9.681087890625,0.10691606253385544,0.5197214484214783,0.10693470388650894
1701290868770163000,9.691162841796874,0.12198635935783386,0.25393107533454895,0.03665068745613098
1701290868780237600,9.701237548828125,0.1153939738869667,0.16708432137966156,0.03910665586590767
1701290868790312700,9.711312744140624,0.07558290660381317,0.13321131467819214,0.1407776176929474
1701290868800387800,9.721387939453125,0.005614476278424263,0.10367739200592041,0.30037474632263184
1701290868810462700,9.731462646484376,-0.06798437982797623,0.111552894115448,0.4815485179424286
1701290868820536800,9.741536865234375,-0.042936548590660095,0.11151321232318878,0.6011415123939514
1701290868830611700,9.75161181640625,0.05983084440231323,0.1443992555141449,0.6154362559318542
1701290868840686800,9.761686767578125,0.12661679089069366,0.30818578600883484,0.6164038181304932
1701290868850761700,9.77176171875,0.1765795648097992,0.6101070046424866,0.6632304191589355
1701290868860836900,9.7818369140625,0.2195509970188141,0.8666061758995056,0.7028718590736389
1701290868870911700,9.791911865234376,0.2481112778186798,0.9077634811401367,0.6985133290290833
1701290868880986600,9.801986572265625,0.28180131316185,0.8527809381484985,0.6948530673980713
1701290868891061800,9.812061767578125,0.33363816142082214,0.8073407411575317,0.7531459331512451
1701290868901137000,9.822136962890625,0.40217408537864685,0.7662273645401001,0.8571282625198364
1701290868911210800,9.832210693359375,0.49404701590538025,0.767044186592102,0.9931300282478333
1701290868921286000,9.842285888671874,0.5752561092376709,0.8500152230262756,1.1602181196212769
1701290868931360800,9.85236083984375,0.600430965423584,0.9257891178131104,1.2722103595733643
1701290868941436000,9.862435791015624,0.5163347125053406,0.9282280206680298,1.194043755531311
1701290868951510800,9.8725107421875,0.31699737906455994,0.9443726539611816,1.0174593925476074
1701290868961585700,9.882585693359376,0.07504681497812271,0.9036486148834229,0.8959512710571289
1701290868971660800,9.892660888671875,-0.11803236603736877,0.7885382771492004,0.885172426700592
1701290868981735700,9.902735595703126,-0.1828955113887787,0.6610514521598816,0.9522835612297058
1701290868991810800,9.912810791015625,-0.19587096571922302,0.5606814026832581,0.9406124949455261
1701290869001885700,9.9228857421875,-0.22120775282382965,0.5365963578224182,0.8813550472259521
1701290869011959800,9.932959716796875,-0.16941513121128082,0.5758295059204102,0.941739022731781
1701290869022034700,9.94303466796875,0.017766213044524193,0.6399242877960205,1.1343291997909546
1701290869032109800,9.95310986328125,0.3672911822795868,0.8461787104606628,1.4491556882858276
1701290869042184700,9.963184814453125,0.8478791117668152,1.1286652088165283,1.7906568050384521
1701290869052259600,9.973259521484374,1.3598108291625977,1.3054370880126953,2.053063154220581
1701290869062334700,9.983334716796875,1.7999868392944336,1.2894314527511597,2.3109030723571777
1701290869072409900,9.993409912109374,2.040473461151123,1.0484020709991455,2.357508659362793
1701290869082484700,10.003484619140625,2.0792438983917236,0.8412196040153503,2.144334077835083
1701290869092558800,10.013558837890624,1.9552861452102661,0.8500367999076843,1.8496801853179932
1701290869102633700,10.0236337890625,1.727894902229309,0.8673335313796997,1.6018292903900146
1701290869112708900,10.033708984375,1.4861624240875244,0.7425013184547424,1.4393794536590576
1701290869122783700,10.04378369140625,1.3370658159255981,0.551638662815094,1.3730659484863281
1701290869132859000,10.05385888671875,1.2851240634918213,0.33946487307548523,1.3260784149169922
1701290869142933800,10.063933837890625,1.2398961782455444,0.24968387186527252,1.2400554418563843
1701290869153008600,10.074008544921876,1.1468244791030884,0.30950087308883667,1.0815541744232178
1701290869163083800,10.084083740234375,1.0044293403625488,0.22136513888835907,0.8904162049293518
1701290869173158700,10.09415869140625,0.8680605292320251,0.01954547129571438,0.751068651676178
1701290869183233800,10.10423388671875,0.7519317865371704,-0.17849090695381165,0.7189461588859558
1701290869193307600,10.1143076171875,0.6084175109863281,-0.3361378014087677,0.7584283351898193
1701290869203382800,10.1243828125,0.4360468089580536,-0.4029029905796051,0.8404406309127808
1701290869213458000,10.1344580078125,0.2699047029018402,-0.3013569116592407,0.9663724899291992
1701290869223532800,10.14453271484375,0.1563134342432022,-0.06977908313274384,1.0715553760528564
1701290869233607700,10.154607666015625,0.09579097479581833,0.18678799271583557,1.0882158279418945
1701290869243682800,10.164682861328124,0.05823108181357384,0.3403719663619995,0.9808076024055481
1701290869253758000,10.174758056640625,-0.0192559864372015,0.3986120820045471,0.8015206456184387
1701290869263832800,10.184832763671874,-0.13538765907287598,0.36804699897766113,0.6122905611991882
1701290869273908000,10.194907958984375,-0.26097461581230164,0.29793262481689453,0.47108229994773865
1701290869283981800,10.20498193359375,-0.3735640048980713,0.2516292929649353,0.376691073179245
1701290869294057000,10.215056884765625,-0.4906219244003296,0.2398192584514618,0.32227709889411926
1701290869304132000,10.225132080078126,-0.6113467216491699,0.24007119238376617,0.3095341622829437
1701290869314206700,10.235206787109375,-0.7126254439353943,0.24017877876758575,0.3210161030292511
1701290869324281900,10.24528173828125,-0.839520275592804,0.20287588238716125,0.3282865285873413
1701290869334356700,10.255356689453125,-0.9841544032096863,0.1333996057510376,0.3310655355453491
1701290869344431900,10.265431884765626,-1.1220380067825317,0.04590197652578354,0.3485531806945801
1701290869354507000,10.275507080078125,-1.2332520484924316,0.05435085669159889,0.3773033320903778
1701290869364582000,10.285581787109376,-1.3046133518218994,0.21548648178577423,0.32362252473831177
1701290869374657000,10.295656982421875,-1.3408688306808472,0.5724366307258606,0.14862409234046936
1701290869384731000,10.30573095703125,-1.3603184223175049,0.9576093554496765,-0.07781064510345459
1701290869394806000,10.315805908203124,-1.3572925329208374,1.287448525428772,-0.29545214772224426
1701290869404881000,10.325880859375,-1.3020455837249756,1.5468989610671997,-0.4351871609687805
1701290869414955800,10.335955810546874,-1.2678457498550415,1.7641910314559937,-0.4496670365333557
1701290869425031000,10.346031005859375,-1.3335105180740356,1.9740079641342163,-0.3809220492839813
1701290869435105800,10.356105712890624,-1.3884425163269043,2.131183624267578,-0.2753772437572479
1701290869445181000,10.366180908203125,-1.3654581308364868,2.238396167755127,-0.13674746453762054
1701290869455256000,10.376256103515624,-1.2773358821868896,2.259758472442627,0.025133581832051277
1701290869465331000,10.3863310546875,-1.1873363256454468,2.1742141246795654,0.19982443749904633
1701290869475405000,10.396405029296876,-1.1281362771987915,1.9784709215164185,0.36494600772857666
1701290869485480000,10.40647998046875,-1.1442620754241943,1.7385871410369873,0.44785022735595703
1701290869495554800,10.416554931640626,-1.2182995080947876,1.603381633758545,0.37035754323005676
1701290869505629700,10.426629638671875,-1.3074208498001099,1.7831770181655884,0.14577451348304749
1701290869515704800,10.436704833984376,-1.3186732530593872,2.166307210922241,-0.10711447149515152
1701290869525780000,10.446780029296875,-1.2025806903839111,2.402297019958496,-0.22101280093193054
1701290869535854800,10.456854736328125,-0.972148060798645,2.2100462913513184,-0.15223906934261322
1701290869545930000,10.466929931640625,-0.7531683444976807,1.6877895593643188,0.05207065865397453
1701290869556004900,10.4770048828125,-0.591832160949707,1.1274149417877197,0.28118398785591125
1701290869566079000,10.487078857421874,-0.4530055522918701,0.8191678524017334,0.44764673709869385
1701290869576154000,10.497154052734375,-0.33590903878211975,0.7784294486045837,0.5343643426895142
1701290869586228700,10.507228759765624,-0.23887382447719574,0.8690949082374573,0.5622768998146057
1701290869596304000,10.517303955078125,-0.17120690643787384,0.9936128854751587,0.5640631318092346
1701290869606378800,10.527378662109374,-0.1321686953306198,1.1425755023956299,0.5522639751434326
1701290869616454000,10.537453857421875,-0.15934331715106964,1.2529525756835938,0.49190181493759155
1701290869626529000,10.547529052734374,-0.20428869128227234,1.2925246953964233,0.39260825514793396
1701290869636604000,10.55760400390625,-0.27766650915145874,1.2094823122024536,0.303693562746048
1701290869646679000,10.567678955078126,-0.3762862980365753,0.998150110244751,0.27138784527778625
1701290869656753000,10.5777529296875,-0.47064340114593506,0.7870157361030579,0.23762081563472748
1701290869666828000,10.587828125,-0.5598286986351013,0.733727216720581,0.1363927274942398
1701290869676902700,10.597902587890625,-0.6360493898391724,0.8376725316047668,-0.07534215599298477
1701290869686977800,10.607977783203125,-0.7334633469581604,1.1630111932754517,-0.17941902577877045
1701290869697053000,10.618052978515625,-0.8609206080436707,1.5382673740386963,0.12874945998191833
1701290869707127800,10.6281279296875,-0.7488750219345093,1.7626515626907349,0.6116077303886414
1701290869717203000,10.638202880859374,-0.34510546922683716,1.4943060874938965,0.6687636971473694
1701290869727278000,10.648278076171875,0.1301683932542801,0.40247127413749695,0.3588383197784424
1701290869737353000,10.65835302734375,0.4532111585140228,-0.764508068561554,0.08326452970504761
1701290869747427000,10.668427001953125,0.6094657182693481,-1.0280810594558716,-0.20316722989082336
1701290869757502000,10.678501953125,0.731863796710968,0.2939804792404175,-0.649969756603241
1701290869767576800,10.688576904296875,0.7173227071762085,1.9086731672286987,-0.5542139410972595
1701290869777651700,10.698651611328126,0.6975247859954834,1.830948829650879,0.09127611666917801
1701290869787726800,10.708726806640625,0.7088575959205627,0.44056805968284607,0.4591068625450134
1701290869797802000,10.718802001953126,0.6319404244422913,-0.8278457522392273,0.4755691885948181
1701290869807876900,10.728876953125,0.44794395565986633,-1.0507557392120361,0.4257286787033081
1701290869817952000,10.738951904296876,0.25200027227401733,-0.37771108746528625,0.32751768827438354
1701290869828027000,10.74902685546875,0.1730511337518692,0.28735482692718506,0.2119135856628418
1701290869838101800,10.759101806640626,0.09407936036586761,0.6157262921333313,0.1475050300359726
1701290869848175900,10.76917578125,-0.03798599913716316,0.8038778305053711,0.09474248439073563
1701290869858250800,10.779250732421875,-0.16596287488937378,0.8768628239631653,-0.023938355967402458
1701290869868326000,10.789325927734374,-0.22289593517780304,0.8533574938774109,-0.19901695847511292
1701290869878400800,10.79940087890625,-0.23986345529556274,0.7552173733711243,-0.3569115102291107
1701290869888476000,10.809475830078124,-0.2684043049812317,0.6792136430740356,-0.43979814648628235
1701290869898551000,10.819551025390625,-0.26921629905700684,0.6337980031967163,-0.4282538890838623
1701290869908626000,10.8296259765625,-0.26332777738571167,0.5985760688781738,-0.37886956334114075
1701290869918701000,10.839701171875,-0.29306089878082275,0.5782876014709473,-0.34899768233299255
1701290869928775700,10.849775634765624,-0.3483276069164276,0.5795965194702148,-0.3747352659702301
1701290869938850000,10.85985009765625,-0.36412787437438965,0.6254449486732483,-0.4315793514251709
1701290869948924700,10.869924560546876,-0.3481457233428955,0.7708847522735596,-0.47575855255126953
1701290869958999800,10.879999755859375,-0.32388511300086975,0.9605611562728882,-0.45960888266563416
1701290869969075000,10.890074951171876,-0.3036762475967407,1.1069532632827759,-0.3814392387866974
1701290869979149800,10.90014990234375,-0.30090099573135376,1.1436388492584229,-0.26716938614845276
1701290869989225000,10.910224853515626,-0.29197487235069275,1.0737460851669312,-0.19351273775100708
1701290869999299800,10.9202998046875,-0.26859524846076965,0.9592333436012268,-0.19088153541088104
1701290870009375000,10.930375,-0.2298121601343155,0.8340839147567749,-0.21074871718883514
1701290870019449900,10.940449951171875,-0.18557465076446533,0.7170952558517456,-0.20525488257408142
1701290870029524000,10.95052392578125,-0.14529195427894592,0.6679977774620056,-0.1584884375333786
1701290870039598800,10.960598876953124,-0.09285563975572586,0.6820771098136902,-0.07151679694652557
1701290870049673700,10.970673828125,-0.030960045754909515,0.6890239715576172,0.031385887414216995
1701290870059748900,10.980748779296874,0.030254574492573738,0.6330589652061462,0.0897381380200386
1701290870069824000,10.990823974609375,0.07268645614385605,0.48893454670906067,0.06430015712976456
1701290870079899000,11.00089892578125,0.11261576414108276,0.28454384207725525,-0.011240137740969658
1701290870089974000,11.01097412109375,0.15251657366752625,0.08863425999879837,-0.08455776423215866
1701290870100049000,11.021048828125,0.1830340027809143,-0.028848692774772644,-0.14593909680843353
1701290870110123800,11.031123779296875,0.21088054776191711,-0.041788458824157715,-0.17261545360088348
1701290870120198000,11.041197998046876,0.23136983811855316,0.06635558605194092,-0.1414673775434494
1701290870130272800,11.051272705078125,0.2606313228607178,0.235413059592247,-0.018271947279572487
1701290870140348000,11.061347900390626,0.31285858154296875,0.3516105115413666,0.15770681202411652
1701290870150422800,11.0714228515625,0.33936527371406555,0.3030259311199188,0.2760012149810791
1701290870160498000,11.081497802734376,0.3241538405418396,0.19779537618160248,0.3047809302806854
1701290870170573000,11.091572998046875,0.30308184027671814,0.17929652333259583,0.33379900455474854
1701290870180648000,11.10164794921875,0.29588064551353455,0.1592852622270584,0.36801663041114807
1701290870190722800,11.111722900390625,0.3048328757286072,0.09608818590641022,0.39765575528144836
1701290870200797700,11.121797607421875,0.3122766613960266,0.007558317389339209,0.4176768660545349
1701290870210871800,11.131871826171874,0.29088935256004333,-0.13754747807979584,0.40190908312797546
1701290870220946700,11.14194677734375,0.2676865756511688,-0.22581981122493744,0.37415575981140137
1701290870231021800,11.152021728515624,0.2752837836742401,-0.17883099615573883,0.4115031361579895
1701290870241096700,11.1620966796875,0.3004993796348572,-0.0243772454559803,0.5498330593109131
1701290870251171600,11.172171630859374,0.3254055380821228,0.053533267229795456,0.6589749455451965
1701290870261246700,11.182246826171875,0.3290175795555115,0.08922122418880463,0.6910407543182373
1701290870271321600,11.192321533203126,0.3117906451225281,0.24032577872276306,0.7110544443130493
1701290870281396700,11.202396728515625,0.3041478991508484,0.4854212999343872,0.7878695726394653
1701290870291471600,11.2124716796875,0.33288633823394775,0.6582782864570618,0.8541042804718018
1701290870301545700,11.222545654296875,0.3328418731689453,0.7453937530517578,0.7956497073173523
1701290870311620600,11.23262060546875,0.14505918323993683,0.8256095051765442,0.7055342197418213
1701290870321695500,11.242695556640625,-0.11302641779184341,0.9876998662948608,0.7227060198783875
1701290870331770600,11.2527705078125,-0.1933090090751648,1.0615301132202148,0.8061659932136536
1701290870341845500,11.262845458984375,-0.18323932588100433,0.9275289177894592,0.8759325742721558
1701290870351920600,11.272920654296875,-0.14641153812408447,0.7469660639762878,0.8869242668151855
1701290870361995800,11.282995849609375,-0.08935198187828064,0.7703638076782227,0.9337242245674133
1701290870372070700,11.293070556640625,0.008955677971243858,0.954583466053009,1.02735435962677
1701290870382145500,11.3031455078125,0.13391226530075073,1.1980317831039429,1.1869237422943115
1701290870392219600,11.3132197265625,0.28561604022979736,1.3383077383041382,1.3765466213226318
1701290870402294500,11.32329443359375,0.4068537652492523,1.203086495399475,1.5007511377334595
1701290870412369700,11.33336962890625,0.494926393032074,1.0117790699005127,1.7040550708770752
1701290870422444500,11.343444580078126,0.6392809152603149,0.8613075613975525,1.9454407691955566
1701290870432519700,11.353519775390625,0.8564742207527161,0.708399772644043,2.080848217010498
1701290870442594600,11.363594482421876,1.0785139799118042,0.5568581819534302,2.102459192276001
1701290870452669700,11.373669677734375,1.2127410173416138,0.43318605422973633,2.128861665725708
1701290870462744800,11.383744873046876,1.1933257579803467,0.32795098423957825,2.138415575027466
1701290870472819500,11.3938193359375,1.0921945571899414,0.2565188705921173,2.074831962585449
1701290870482893800,11.403893798828125,1.0241129398345947,0.3579810559749603,1.9766484498977661
1701290870492968400,11.413968505859375,1.0269290208816528,0.6662376523017883,1.8883394002914429
1701290870503043600,11.424043701171875,1.0521643161773682,0.9867022633552551,1.8219832181930542
1701290870513118700,11.43411865234375,1.0260610580444336,1.2539137601852417,1.7865099906921387
1701290870523193600,11.444193603515625,0.8809577226638794,1.4016752243041992,1.645642876625061
1701290870533268700,11.454268798828124,0.6235634684562683,1.328555941581726,1.4346562623977661
1701290870543343600,11.464343505859375,0.46087414026260376,1.0054991245269775,1.3380690813064575
1701290870553418800,11.474418701171874,0.39800354838371277,0.6496943831443787,1.3638529777526855
1701290870563493600,11.48449365234375,0.36547011137008667,0.44528213143348694,1.3772814273834229
1701290870573567700,11.494567626953126,0.33270683884620667,0.5253815054893494,1.3327659368515015
1701290870583642600,11.504642578125,0.3353441655635834,0.7835429906845093,1.3003299236297607
1701290870593717500,11.514717529296876,0.38455700874328613,1.1266788244247437,1.3247015476226807
1701290870603792600,11.524792724609375,0.4738658368587494,1.3864030838012695,1.3950798511505127
1701290870613867500,11.534867431640626,0.5435168147087097,1.389814853668213,1.4485468864440918
1701290870623942700,11.544942626953125,0.5306497812271118,1.1883291006088257,1.405805230140686
1701290870634017800,11.555017822265626,0.4203653335571289,0.8025816679000854,1.2436416149139404
1701290870644092700,11.5650927734375,0.267225056886673,0.2954638600349426,1.034109115600586
1701290870654167600,11.57516748046875,0.12856197357177734,-0.15262575447559357,0.8578478693962097
1701290870664241700,11.58524169921875,0.012300075963139534,-0.3606439530849457,0.7668742537498474
1701290870674316500,11.595316650390625,-0.10720395296812057,-0.35526755452156067,0.7591463327407837
1701290870684391700,11.6053916015625,-0.25421416759490967,-0.25054407119750977,0.7718786001205444
1701290870694466600,11.615466552734375,-0.40686070919036865,-0.10686866194009781,0.7589524388313293
1701290870704541700,11.625541748046874,-0.5363023281097412,0.07141026854515076,0.7286136746406555
1701290870714616600,11.635616455078125,-0.6309396028518677,0.2649421691894531,0.7175306677818298
1701290870724691700,11.645691650390624,-0.7052255868911743,0.4266168177127838,0.7316121459007263
1701290870734766800,11.655766845703125,-0.7777900099754333,0.55552738904953,0.7456920146942139
1701290870744841500,11.665841552734374,-0.866044819355011,0.6849996447563171,0.7257736921310425
1701290870754916600,11.67591650390625,-0.9665682315826416,0.8098345398902893,0.6533104181289673
1701290870764990500,11.685990478515626,-1.0321437120437622,0.9980182647705078,0.5526450872421265
1701290870775065600,11.696065673828125,-1.0601327419281006,1.223344087600708,0.46756213903427124
1701290870785140500,11.706140380859376,-1.0762132406234741,1.4660989046096802,0.40147286653518677
1701290870795215600,11.716215576171875,-1.1135337352752686,1.6734811067581177,0.3293733596801758
1701290870805290800,11.726290771484376,-1.1789106130599976,1.8244317770004272,0.27092310786247253
1701290870815365600,11.73636572265625,-1.2575987577438354,1.8942047357559204,0.22606216371059418
1701290870825440800,11.746440673828126,-1.3501102924346924,1.892065167427063,0.17327697575092316
1701290870835515600,11.756515625,-1.4568209648132324,1.8478007316589355,0.11045194417238235
1701290870845589800,11.76658984375,-1.5626704692840576,1.8495442867279053,0.07223531603813171
1701290870855664600,11.77666455078125,-1.6336727142333984,1.8608428239822388,0.05792801454663277
1701290870865739500,11.786739501953125,-1.6413167715072632,1.7514958381652832,0.03529913350939751
1701290870875814700,11.796814697265624,-1.6200828552246094,1.5105921030044556,-0.03831995651125908
1701290870885889500,11.8068896484375,-1.5939277410507202,1.236875057220459,-0.17144924402236938
1701290870895964700,11.816964599609374,-1.5334739685058594,0.973574161529541,-0.324873685836792
1701290870906039800,11.827039794921875,-1.4166760444641113,0.7658343315124512,-0.4089092016220093
1701290870916114700,11.83711474609375,-1.2368884086608887,0.6275944113731384,-0.4142395257949829
1701290870926189600,11.847189453125,-1.0461384057998657,0.6024858355522156,-0.3919459283351898
1701290870936263700,11.857263671875,-0.86918705701828,0.6611632704734802,-0.3754705488681793
1701290870946338600,11.867338623046875,-0.7375051975250244,0.8275818228721619,-0.40390539169311523
1701290870956413700,11.87741357421875,-0.6056904196739197,1.005687952041626,-0.4516798257827759
1701290870966488600,11.887488525390625,-0.45770150423049927,1.0641427040100098,-0.45606234669685364
1701290870976563700,11.897563720703126,-0.3333177864551544,1.0171089172363281,-0.3795321583747864
1701290870986638600,11.907638671875,-0.23262739181518555,0.9803479313850403,-0.23267026245594025
1701290870996713700,11.917713623046875,-0.15821599960327148,1.008320689201355,-0.049608033150434494
1701290871006788600,11.92778857421875,-0.14855006337165833,1.0825259685516357,0.04312270134687424
1701290871016863500,11.937863525390625,-0.15995503962039948,1.164630651473999,0.05931898206472397
1701290871026937600,11.9479375,-0.19320806860923767,1.2670729160308838,0.0711548700928688
1701290871037012500,11.958012451171875,-0.22887419164180756,1.2685195207595825,0.08209806680679321
1701290871047087600,11.968087646484374,-0.28045615553855896,1.206619381904602,0.1790080964565277
1701290871057162500,11.97816259765625,-0.16804705560207367,1.3883609771728516,0.5793294310569763
1701290871067237600,11.988237548828126,0.26914650201797485,1.536712884902954,1.0602097511291504
1701290871077312800,11.998312744140625,0.5743684768676758,1.2177729606628418,0.9968408942222595
1701290871087387600,12.0083876953125,0.662442684173584,0.563291609287262,0.39461708068847656
1701290871097462500,12.018462646484375,0.7249888777732849,-0.17435795068740845,-0.1135779619216919
1701290871107537700,12.02853759765625,0.7538617849349976,-0.5342847108840942,-0.3653188645839691
1701290871117612500,12.038612548828125,0.7258133888244629,-0.1809159815311432,-0.5612268447875977
1701290871127686700,12.048686767578126,0.8410699367523193,1.9599586725234985,-0.2547089755535126
1701290871137761500,12.058761474609375,1.1047210693359375,3.01509428024292,0.8543758988380432
1701290871147836700,12.068836669921875,1.1531798839569092,1.9683862924575806,1.5011030435562134
1701290871157911600,12.07891162109375,0.9134203195571899,0.14307327568531036,1.3798316717147827
1701290871167986700,12.088986572265625,0.6320093870162964,-0.6801918148994446,1.0317435264587402
1701290871178061800,12.099061767578124,0.38182753324508667,-0.773023784160614,0.5956884026527405
1701290871188136700,12.10913671875,0.2734192907810211,-0.9120652675628662,0.18324731290340424
1701290871198211600,12.119211669921874,0.13013297319412231,-1.0232291221618652,-0.0585557222366333
1701290871208286500,12.129286376953125,-0.1541466861963272,-0.7828034162521362,-0.2558687925338745
1701290871218360600,12.139360595703126,-0.4481825828552246,-0.36276862025260925,-0.5312764048576355
1701290871228435500,12.149435546875,-0.6186389923095703,-0.07903862744569778,-0.8328860402107239
1701290871238511400,12.159511474609374,-0.5594470500946045,-0.04166009649634361,-1.0598472356796265
1701290871248586500,12.16958642578125,-0.3503313958644867,-0.07943117618560791,-1.147202968597412
1701290871258661600,12.17966162109375,-0.2136387825012207,0.010617757216095924,-1.1475446224212646
1701290871268736300,12.189736328125,-0.2638729214668274,0.7681443095207214,-0.9871243238449097
1701290871278811400,12.199811279296876,-0.3339018225669861,1.5872000455856323,-0.5314500331878662
1701290871288886300,12.20988623046875,-0.3345484137535095,1.425462007522583,-0.1085730791091919
1701290871298961400,12.21996142578125,-0.32926443219184875,0.6364083886146545,-0.001981125446036458
1701290871309035500,12.230035400390625,-0.339744508266449,0.05903029814362526,-0.16910406947135925
1701290871319110400,12.2401103515625,-0.3101709187030792,-0.12518134713172913,-0.4132709205150604
1701290871329185500,12.250185546875,-0.23401515185832977,-0.17275020480155945,-0.5318031907081604
1701290871339260400,12.260260498046875,-0.18877124786376953,-0.1373397558927536,-0.5177661776542664
1701290871349335600,12.27033544921875,-0.17391400039196014,0.0049529471434652805,-0.4300200939178467
1701290871359410400,12.280410400390625,-0.18335331976413727,0.2627703845500946,-0.30830058455467224
1701290871369485300,12.2904853515625,-0.19986997544765472,0.4978124499320984,-0.23245294392108917
1701290871379560400,12.300560546875,-0.17637796700000763,0.5368200540542603,-0.21897388994693756
1701290871389635300,12.31063525390625,-0.1668744683265686,0.49391597509384155,-0.20549537241458893
1701290871399709400,12.32070947265625,-0.15395787358283997,0.4982401430606842,-0.11474043130874634
1701290871409784300,12.330784423828124,-0.11108843982219696,0.6591624617576599,0.05998610705137253
1701290871419859500,12.340859375,-0.05855758488178253,0.8722323775291443,0.2323453575372696
1701290871429934600,12.3509345703125,-0.029396237805485725,0.8765086531639099,0.3368973433971405
1701290871440009500,12.361009521484375,0.0029196233954280615,0.6386470794677734,0.39212197065353394
1701290871450084400,12.37108447265625,0.013677995651960373,0.37585803866386414,0.44997701048851013
1701290871460159500,12.381159423828125,0.009060872718691826,0.1880737692117691,0.546636700630188
1701290871470234400,12.391234375,0.017843712121248245,0.10088799893856049,0.6382175087928772
1701290871480309500,12.4013095703125,0.048355814069509506,0.11240563541650772,0.708627462387085
1701290871490383400,12.41138330078125,0.11152306199073792,0.210348978638649,0.7372838854789734
1701290871500458500,12.42145849609375,0.18587559461593628,0.31825122237205505,0.7024382948875427
1701290871510533400,12.431533447265625,0.21632857620716095,0.3281094431877136,0.5808799266815186
1701290871520608500,12.4416083984375,0.20041511952877045,0.292484313249588,0.48311153054237366
1701290871530683400,12.451683349609375,0.16561107337474823,0.31448736786842346,0.4905710518360138
