time,seconds_elapsed,z,y,x
1701290738110828500,0.00882861328125,-0.15191650390625,0.6153564453125,0.7723541259765625
1701290738120904700,0.01890478515625,-0.1473236083984375,0.6130828857421875,0.7744903564453125
1701290738130979800,0.028979736328125,-0.15167236328125,0.6189422607421875,0.77093505859375
1701290738141054700,0.0390546875,-0.1619415283203125,0.6302490234375,0.7628326416015625
1701290738151129600,0.049129638671875,-0.1745147705078125,0.6338043212890625,0.76263427734375
1701290738161205800,0.059205810546875,-0.1685638427734375,0.6303863525390625,0.7706451416015625
1701290738171280600,0.06928076171875,-0.1581268310546875,0.6185150146484375,0.7734832763671875
1701290738181355800,0.079355712890625,-0.154205322265625,0.60601806640625,0.77337646484375
1701290738191431000,0.089430908203125,-0.1517333984375,0.5965423583984375,0.77423095703125
1701290738201506600,0.099506591796875,-0.150634765625,0.592010498046875,0.771484375
1701290738211581700,0.109581787109375,-0.1452484130859375,0.5806121826171875,0.7414703369140625
1701290738221656800,0.11965673828125,-0.1214599609375,0.529541015625,0.638092041015625
1701290738231732500,0.129732421875,-0.122955322265625,0.5661163330078125,0.6573944091796875
1701290738241807600,0.1398076171875,-0.13958740234375,0.6413116455078125,0.7703094482421875
1701290738251882800,0.1498828125,-0.123291015625,0.58343505859375,0.762298583984375
1701290738261957600,0.15995751953125,-0.1237030029296875,0.5726470947265625,0.7529754638671875
1701290738272033800,0.17003369140625,-0.15673828125,0.609588623046875,0.769989013671875
1701290738282108700,0.180108642578125,-0.1638336181640625,0.6205596923828125,0.77532958984375
1701290738292183600,0.19018359375,-0.1427764892578125,0.623870849609375,0.7797088623046875
1701290738302258700,0.2002587890625,-0.12652587890625,0.62982177734375,0.7744293212890625
1701290738312334800,0.2103349609375,-0.1200714111328125,0.64697265625,0.7598114013671875
1701290738322409700,0.22040966796875,-0.1276397705078125,0.66943359375,0.755950927734375
1701290738332484600,0.230484619140625,-0.13482666015625,0.6677398681640625,0.751190185546875
1701290738342560800,0.240560791015625,-0.1190643310546875,0.6425628662109375,0.74896240234375
1701290738352635600,0.2506357421875,-0.117767333984375,0.64251708984375,0.7506256103515625
1701290738362710800,0.260710693359375,-0.1222686767578125,0.627197265625,0.7484893798828125
1701290738372786000,0.270785888671875,-0.118743896484375,0.596954345703125,0.7409210205078125
1701290738382861600,0.280861572265625,-0.1071319580078125,0.5560302734375,0.7315673828125
1701290738392936700,0.290936767578125,-0.0955047607421875,0.5211944580078125,0.7224884033203125
1701290738403011800,0.30101171875,-0.08984375,0.5207672119140625,0.720123291015625
1701290738413086700,0.311086669921875,-0.0872802734375,0.55731201171875,0.696685791015625
1701290738423162600,0.32116259765625,-0.0695953369140625,0.5614166259765625,0.6594696044921875
1701290738433237800,0.33123779296875,-0.068878173828125,0.5721588134765625,0.6305084228515625
1701290738443312600,0.341312744140625,-0.0773468017578125,0.549957275390625,0.5956878662109375
1701290738453388800,0.351388916015625,-0.0680389404296875,0.52313232421875,0.5474853515625
1701290738463463700,0.361463623046875,-0.04559326171875,0.53045654296875,0.518585205078125
1701290738473538600,0.37153857421875,-0.0442352294921875,0.5482025146484375,0.53009033203125
1701290738483613700,0.38161376953125,-0.0319976806640625,0.543731689453125,0.5655059814453125
1701290738493689900,0.39168994140625,-0.0498809814453125,0.6343536376953125,0.593170166015625
1701290738503764700,0.4017646484375,-0.0876312255859375,0.7318267822265625,0.5891571044921875
1701290738513839600,0.411839599609375,-0.0998992919921875,0.7852630615234375,0.5352935791015625
1701290738523914800,0.421914794921875,-0.069610595703125,0.8115997314453125,0.5045318603515625
1701290738533990700,0.43199072265625,-0.0377044677734375,0.803863525390625,0.5183868408203125
1701290738544065800,0.442065673828125,-0.035369873046875,0.74761962890625,0.5184783935546875
1701290738554141000,0.452140869140625,-0.0771484375,0.7223663330078125,0.50762939453125
1701290738564216600,0.462216552734375,-0.052398681640625,0.7446746826171875,0.5347747802734375
1701290738574291700,0.472291748046875,0.008575439453125,0.7554931640625,0.5415802001953125
1701290738584366800,0.482366943359375,0.0265655517578125,0.75372314453125,0.5304412841796875
1701290738594441700,0.492441650390625,0.0233917236328125,0.7677154541015625,0.512786865234375
1701290738604517600,0.502517578125,0.0648345947265625,0.8189849853515625,0.500885009765625
1701290738614592800,0.5125927734375,0.0494842529296875,0.9563446044921875,0.581451416015625
1701290738624667600,0.522667724609375,-0.039947509765625,1.108184814453125,0.7427215576171875
1701290738634743800,0.532743896484375,-0.04705810546875,1.1709442138671875,0.84259033203125
1701290738644818700,0.542818603515625,-0.0383453369140625,1.1881561279296875,0.8720855712890625
1701290738654893600,0.5528935546875,-0.046600341796875,1.2419586181640625,0.8578948974609375
1701290738664968700,0.56296875,-0.038482666015625,1.34637451171875,0.8027496337890625
1701290738675044900,0.573044921875,-0.0142974853515625,1.297332763671875,0.595367431640625
1701290738685119700,0.58311962890625,0.0180511474609375,1.093841552734375,0.35247802734375
1701290738695194600,0.593194580078125,0.0440826416015625,0.79736328125,0.186614990234375
1701290738705269800,0.603269775390625,0.0285491943359375,0.632720947265625,0.1955718994140625
1701290738715345700,0.613345703125,0.0191192626953125,0.87554931640625,0.4680023193359375
1701290738725420800,0.6234208984375,0.0558013916015625,1.2332611083984375,0.686553955078125
1701290738735495700,0.63349560546875,0.074462890625,1.25274658203125,0.6091156005859375
1701290738745571600,0.643571533203125,0.0706024169921875,1.2341766357421875,0.555023193359375
1701290738755646700,0.653646728515625,0.0267333984375,1.1308135986328125,0.443206787109375
1701290738765721900,0.663721923828125,-0.0357818603515625,1.069915771484375,0.320831298828125
1701290738775796700,0.673796630859375,-0.05035400390625,1.1096343994140625,0.2711029052734375
1701290738785872600,0.68387255859375,-0.032989501953125,1.1510162353515625,0.2516632080078125
1701290738795947800,0.69394775390625,-0.0112152099609375,1.1421661376953125,0.2438812255859375
1701290738806022700,0.704022705078125,-0.0150299072265625,0.8732757568359375,0.1066741943359375
1701290738816098800,0.714098876953125,0.016387939453125,0.6272735595703125,0.0560150146484375
1701290738826173700,0.724173583984375,0.0644989013671875,0.60040283203125,0.1712646484375
1701290738836248600,0.73424853515625,0.0679168701171875,0.7091217041015625,0.36053466796875
1701290738846323700,0.74432373046875,0.0002288818359375,0.836639404296875,0.4775390625
1701290738856400000,0.75439990234375,-0.0421142578125,0.9388427734375,0.4621734619140625
1701290738866474800,0.764474853515625,-0.0115203857421875,0.9728240966796875,0.3719329833984375
1701290738876549600,0.774549560546875,0.035858154296875,0.970367431640625,0.3160400390625
1701290738886624800,0.784624755859375,0.0497894287109375,0.957183837890625,0.304290771484375
1701290738896700700,0.79470068359375,0.024444580078125,0.9421844482421875,0.3118743896484375
1701290738906775800,0.80477587890625,-0.0084075927734375,0.9363250732421875,0.322998046875
1701290738916850700,0.8148505859375,-0.0335845947265625,0.931732177734375,0.3350677490234375
1701290738926926600,0.824926513671875,-0.0382080078125,0.9152374267578125,0.3424224853515625
1701290738937001700,0.835001708984375,-0.0035552978515625,0.8851318359375,0.36279296875
1701290738947076900,0.845076904296875,0.032012939453125,0.87310791015625,0.39801025390625
1701290738957151700,0.85515185546875,0.0123138427734375,0.895904541015625,0.42529296875
1701290738967227600,0.8652275390625,0.0050048828125,0.9308319091796875,0.447998046875
1701290738977302800,0.875302734375,-0.01129150390625,0.9445953369140625,0.4443817138671875
1701290738987377700,0.885377685546875,-0.0206298828125,0.9314117431640625,0.4293670654296875
1701290738997453600,0.89545361328125,-0.01416015625,0.928924560546875,0.414031982421875
1701290739007528700,0.90552880859375,-0.0045623779296875,0.920806884765625,0.397186279296875
1701290739017603600,0.915603515625,0.004638671875,0.9137725830078125,0.3847808837890625
1701290739027678700,0.9256787109375,0.0052642822265625,0.9109954833984375,0.370635986328125
1701290739037755000,0.9357548828125,0.0018768310546875,0.923797607421875,0.3671417236328125
1701290739047829500,0.94582958984375,0.0093841552734375,0.937408447265625,0.3669586181640625
1701290739057904600,0.955904541015625,0.021240234375,0.9370880126953125,0.3766021728515625
1701290739067979800,0.965979736328125,0.0227203369140625,0.9122772216796875,0.390655517578125
1701290739078055700,0.9760556640625,0.0237884521484375,0.8863983154296875,0.4174957275390625
1701290739088130800,0.986130859375,0.032623291015625,0.8716278076171875,0.442962646484375
1701290739098205700,0.996205810546875,0.04266357421875,0.869873046875,0.46136474609375
1701290739108280800,1.00628076171875,0.04632568359375,0.886993408203125,0.4708251953125
1701290739118356000,1.01635595703125,0.032379150390625,0.9017181396484375,0.4755401611328125
1701290739128431000,1.02643115234375,0.0061798095703125,0.898895263671875,0.4631500244140625
1701290739138506000,1.036506103515625,-0.014404296875,0.8897552490234375,0.4345245361328125
1701290739148582000,1.046581787109375,-0.0160369873046875,0.9029083251953125,0.4036407470703125
1701290739158657000,1.056656982421875,-0.0001373291015625,0.9329986572265625,0.370147705078125
1701290739168732000,1.06673193359375,0.01214599609375,0.9611053466796875,0.340667724609375
1701290739178808000,1.07680810546875,0.0173187255859375,0.956817626953125,0.3250579833984375
1701290739188883000,1.086883056640625,0.0269622802734375,0.9360504150390625,0.3343353271484375
1701290739198957800,1.096957763671875,0.0453033447265625,0.91973876953125,0.3604583740234375
1701290739209033000,1.107032958984375,0.0638580322265625,0.9056243896484375,0.3803558349609375
1701290739219109000,1.117109130859375,0.0687713623046875,0.8963165283203125,0.3942718505859375
1701290739229184000,1.12718408203125,0.0623321533203125,0.902984619140625,0.4010467529296875
1701290739239259000,1.1372587890625,0.045562744140625,0.9177093505859375,0.406951904296875
1701290739249333800,1.147333740234375,0.035400390625,0.921844482421875,0.40533447265625
1701290739259410000,1.157409912109375,0.037506103515625,0.9175567626953125,0.405181884765625
1701290739269485000,1.167485107421875,0.046112060546875,0.911773681640625,0.405548095703125
1701290739279560000,1.177559814453125,0.0629119873046875,0.90460205078125,0.4013671875
1701290739289635800,1.1876357421875,0.071929931640625,0.9129180908203125,0.392974853515625
1701290739299711000,1.1977109375,0.0628509521484375,0.9349365234375,0.3947601318359375
1701290739309786000,1.2077861328125,0.0429840087890625,0.9525604248046875,0.38848876953125
1701290739319861000,1.217861083984375,0.0191192626953125,0.9482574462890625,0.364593505859375
1701290739329937000,1.22793701171875,0.0099334716796875,0.9354248046875,0.3513946533203125
1701290739340012000,1.238011962890625,0.0237579345703125,0.9189300537109375,0.351287841796875
1701290739350087000,1.2480869140625,0.0404205322265625,0.92822265625,0.3643798828125
1701290739360163000,1.2581630859375,0.0491943359375,0.950714111328125,0.37548828125
1701290739370238000,1.268238037109375,0.04736328125,0.9619293212890625,0.3643951416015625
1701290739380312800,1.278312744140625,0.03857421875,0.9542236328125,0.3488006591796875
1701290739390388000,1.288387939453125,0.0364837646484375,0.928375244140625,0.340423583984375
1701290739400464100,1.298464111328125,0.0556640625,0.9066314697265625,0.349578857421875
1701290739410539000,1.3085390625,0.076324462890625,0.93377685546875,0.3809356689453125
1701290739420614000,1.31861376953125,0.0910797119140625,0.995635986328125,0.41131591796875
1701290739430688800,1.328688720703125,0.0940093994140625,1.0357513427734375,0.4198150634765625
1701290739440765000,1.338764892578125,0.07916259765625,1.01593017578125,0.4041595458984375
1701290739450840000,1.348840087890625,0.0836181640625,0.9389801025390625,0.368438720703125
1701290739460915000,1.3589150390625,0.107330322265625,0.878143310546875,0.343841552734375
1701290739470990800,1.368990966796875,0.129608154296875,0.865966796875,0.3280029296875
1701290739481066000,1.37906591796875,0.1370086669921875,0.8741302490234375,0.3092193603515625
1701290739491141000,1.38914111328125,0.130828857421875,0.891448974609375,0.2841339111328125
1701290739501216000,1.399216064453125,0.124969482421875,0.9141082763671875,0.255950927734375
1701290739511292000,1.4092919921875,0.1254425048828125,0.92529296875,0.2266693115234375
1701290739521367000,1.419366943359375,0.12518310546875,0.907257080078125,0.2155914306640625
1701290739531442000,1.42944189453125,0.11163330078125,0.865478515625,0.2275848388671875
1701290739541517000,1.43951708984375,0.0842132568359375,0.84478759765625,0.265625
1701290739551593000,1.449593017578125,0.064910888671875,0.8678741455078125,0.3132171630859375
1701290739561667800,1.459667724609375,0.0473175048828125,0.9088287353515625,0.3376007080078125
1701290739571743000,1.469742919921875,0.038421630859375,0.9429779052734375,0.3583984375
1701290739581819100,1.479819091796875,0.0364227294921875,0.967254638671875,0.3786773681640625
1701290739591894000,1.48989404296875,0.0356903076171875,0.9741973876953125,0.4002838134765625
1701290739601969000,1.499968994140625,0.0381011962890625,0.968780517578125,0.4320220947265625
1701290739612043800,1.510043701171875,0.0537261962890625,0.9386444091796875,0.4565582275390625
1701290739622120000,1.520119873046875,0.0796051025390625,0.8956146240234375,0.4665374755859375
1701290739632195000,1.530195068359375,0.1081085205078125,0.8769073486328125,0.464813232421875
1701290739642270000,1.54027001953125,0.1276702880859375,0.893524169921875,0.455322265625
1701290739652344800,1.5503447265625,0.1176300048828125,0.9487762451171875,0.4551239013671875
1701290739662421000,1.5604208984375,0.076141357421875,1.0018310546875,0.4511260986328125
1701290739672496000,1.57049609375,0.0365753173828125,1.008087158203125,0.429168701171875
1701290739682571000,1.580571044921875,0.0191650390625,0.9614105224609375,0.393035888671875
1701290739692647000,1.59064697265625,0.0353546142578125,0.9121246337890625,0.3680267333984375
1701290739702722000,1.60072216796875,0.0801544189453125,0.8870086669921875,0.3443756103515625
1701290739712797000,1.610796875,0.1275482177734375,0.873779296875,0.3245086669921875
1701290739722872000,1.6208720703125,0.1580810546875,0.86712646484375,0.313323974609375
1701290739732948000,1.630947998046875,0.1707611083984375,0.86285400390625,0.3183441162109375
1701290739743022800,1.64102294921875,0.166351318359375,0.8755645751953125,0.34466552734375
1701290739753098000,1.651097900390625,0.1623077392578125,0.8936309814453125,0.384735107421875
1701290739763172900,1.6611728515625,0.1558380126953125,0.8957672119140625,0.4003448486328125
1701290739773249000,1.6712490234375,0.141265869140625,0.8783721923828125,0.401519775390625
1701290739783324000,1.681323974609375,0.116912841796875,0.8674774169921875,0.413543701171875
1701290739793398800,1.691398681640625,0.0901031494140625,0.872802734375,0.4208526611328125
1701290739803475000,1.701474853515625,0.06341552734375,0.8915557861328125,0.4308624267578125
1701290739813550000,1.711550048828125,0.0428314208984375,0.901397705078125,0.41131591796875
1701290739823625000,1.721625,0.0295257568359375,0.8928375244140625,0.363433837890625
1701290739833699800,1.731699951171875,0.0268707275390625,0.894500732421875,0.33587646484375
1701290739843776000,1.74177587890625,0.042999267578125,0.920654296875,0.34075927734375
1701290739853851100,1.75185107421875,0.08001708984375,0.9479827880859375,0.379241943359375
1701290739863926000,1.761926025390625,0.1040802001953125,0.9433135986328125,0.42877197265625
1701290739874001200,1.772001220703125,0.1168212890625,0.90667724609375,0.4576873779296875
1701290739884077000,1.7820771484375,0.136474609375,0.87396240234375,0.4684906005859375
1701290739894152000,1.79215185546875,0.1508636474609375,0.8725128173828125,0.491424560546875
1701290739904227000,1.80222705078125,0.1285247802734375,0.89031982421875,0.5203094482421875
1701290739914303000,1.812302978515625,0.0900726318359375,0.912811279296875,0.5391693115234375
1701290739924377900,1.8223779296875,0.04736328125,0.9208221435546875,0.550201416015625
1701290739934453000,1.832452880859375,0.01275634765625,0.9022979736328125,0.5423583984375
1701290739944528000,1.84252783203125,0.013824462890625,0.8750152587890625,0.503875732421875
1701290739954604000,1.85260400390625,0.0445098876953125,0.8654327392578125,0.4698333740234375
1701290739964679000,1.862678955078125,0.0736083984375,0.8656158447265625,0.4526214599609375
1701290739974753800,1.87275390625,0.105682373046875,0.8725128173828125,0.4481964111328125
1701290739984829000,1.882828857421875,0.1305084228515625,0.870330810546875,0.4500579833984375
1701290739994905000,1.892905029296875,0.1411285400390625,0.8541717529296875,0.451934814453125
1701290740004980000,1.90297998046875,0.1428375244140625,0.841278076171875,0.45489501953125
1701290740015054800,1.913054931640625,0.1466217041015625,0.8376617431640625,0.4684600830078125
1701290740025131000,1.923131103515625,0.1134796142578125,0.8327178955078125,0.454071044921875
1701290740035206100,1.9332060546875,0.0333404541015625,0.839691162109375,0.4377593994140625
1701290740045281000,1.943281005859375,-0.0670318603515625,0.8517913818359375,0.4305877685546875
1701290740055356000,1.95335595703125,-0.1395263671875,0.8487091064453125,0.425537109375
1701290740065432000,1.96343212890625,-0.15643310546875,0.8213958740234375,0.420989990234375
1701290740075507000,1.9735068359375,-0.1195526123046875,0.7800140380859375,0.4151458740234375
1701290740085582000,1.98358203125,-0.0853118896484375,0.7425079345703125,0.4043121337890625
1701290740095657000,1.993656982421875,-0.1024932861328125,0.7050018310546875,0.388946533203125
1701290740105733400,2.0037333984375,-0.1341705322265625,0.68292236328125,0.4050140380859375
1701290740115808500,2.01380859375,-0.1384124755859375,0.7038116455078125,0.4571990966796875
1701290740125883400,2.02388330078125,-0.11651611328125,0.7331085205078125,0.4821014404296875
1701290740135959300,2.033959228515625,-0.082366943359375,0.732330322265625,0.4459075927734375
1701290740146034400,2.044034423828125,-0.03912353515625,0.7144012451171875,0.37371826171875
1701290740156109300,2.054109375,-0.036956787109375,0.69378662109375,0.3380279541015625
1701290740166184400,2.064184326171875,-0.04791259765625,0.701324462890625,0.3621063232421875
1701290740176260400,2.07426025390625,-0.0025482177734375,0.76318359375,0.4101409912109375
1701290740186335200,2.084335205078125,0.028289794921875,0.799407958984375,0.3910980224609375
1701290740196410400,2.094410400390625,-0.010833740234375,0.76904296875,0.31494140625
1701290740206485500,2.104485595703125,-0.119232177734375,0.706573486328125,0.278472900390625
1701290740216561400,2.1145615234375,-0.271453857421875,0.6854248046875,0.2914581298828125
1701290740226636300,2.12463623046875,-0.13433837890625,0.804473876953125,0.324462890625
1701290740236711400,2.13471142578125,0.148895263671875,1.0012664794921875,0.35400390625
1701290740246787300,2.144787353515625,0.2423553466796875,1.093231201171875,0.367431640625
1701290740256862500,2.154862548828125,0.1941375732421875,1.0721435546875,0.4271392822265625
1701290740266937600,2.1649375,0.0496826171875,0.976531982421875,0.5294189453125
1701290740277012200,2.17501220703125,-0.102081298828125,0.8554229736328125,0.6118011474609375
1701290740287088400,2.18508837890625,-0.195648193359375,0.7617034912109375,0.709625244140625
1701290740297163500,2.19516357421875,-0.3801116943359375,0.677276611328125,0.80328369140625
1701290740307238400,2.20523828125,-0.5269622802734375,0.671875,0.854248046875
1701290740317313500,2.2153134765625,-0.2869415283203125,0.809478759765625,0.794189453125
1701290740327389400,2.225389404296875,0.0493927001953125,0.9279632568359375,0.65899658203125
1701290740337464300,2.23546435546875,0.0986175537109375,0.9431915283203125,0.5319976806640625
1701290740347539500,2.24553955078125,0.0976104736328125,0.9137420654296875,0.4566497802734375
1701290740357615400,2.255615478515625,0.085479736328125,0.9117584228515625,0.4673614501953125
1701290740367690200,2.265690185546875,-0.0253753662109375,0.95489501953125,0.5117950439453125
1701290740377765400,2.275765380859375,-0.1998443603515625,0.9757843017578125,0.57958984375
1701290740387840500,2.285840576171875,-0.3764190673828125,0.976043701171875,0.7089385986328125
1701290740397916400,2.29591650390625,-0.45635986328125,1.0177459716796875,0.8568267822265625
1701290740407991300,2.3059912109375,-0.388641357421875,1.08587646484375,0.917205810546875
1701290740418066400,2.31606640625,-0.3224029541015625,1.142791748046875,0.8878936767578125
1701290740428141300,2.326141357421875,-0.3086395263671875,1.179412841796875,0.77252197265625
1701290740438217500,2.336217529296875,-0.2791595458984375,1.1737060546875,0.5308074951171875
1701290740448292600,2.346292724609375,-0.199127197265625,1.155487060546875,0.2902984619140625
1701290740458367200,2.3563671875,-0.0870361328125,1.1414642333984375,0.1270294189453125
1701290740468443400,2.366443359375,-0.001708984375,1.1583251953125,0.0711517333984375
1701290740478518500,2.3765185546875,0.033050537109375,1.2209320068359375,0.0715179443359375
1701290740488593400,2.386593505859375,0.007965087890625,1.317657470703125,0.146820068359375
1701290740498668500,2.39666845703125,-0.076385498046875,1.36297607421875,0.2374114990234375
1701290740508744400,2.406744384765625,-0.1854248046875,1.2510223388671875,0.3507537841796875
1701290740518819300,2.4168193359375,-0.2255706787109375,1.0818634033203125,0.4728546142578125
1701290740528894500,2.42689453125,-0.1987152099609375,0.956573486328125,0.5518646240234375
1701290740538969600,2.436969482421875,-0.188201904296875,0.8626861572265625,0.565399169921875
1701290740549045200,2.447045166015625,-0.2271575927734375,0.797515869140625,0.50762939453125
1701290740559120400,2.457120361328125,-0.2388763427734375,0.7794342041015625,0.417816162109375
1701290740569195500,2.467195556640625,-0.2147674560546875,0.8121795654296875,0.3259735107421875
1701290740579271400,2.477271484375,-0.1807708740234375,0.8775787353515625,0.2635650634765625
1701290740589346300,2.48734619140625,-0.1411285400390625,0.9345855712890625,0.2364349365234375
1701290740599421400,2.49742138671875,-0.1222686767578125,0.95745849609375,0.23248291015625
1701290740609496300,2.507496337890625,-0.152679443359375,0.9431304931640625,0.2362823486328125
1701290740619572500,2.517572509765625,-0.188232421875,0.893829345703125,0.2450103759765625
1701290740629647600,2.527647705078125,-0.1984405517578125,0.8209075927734375,0.2559051513671875
1701290740639722200,2.53772216796875,-0.203033447265625,0.7546539306640625,0.269073486328125
1701290740649798400,2.54779833984375,-0.2015838623046875,0.702972412109375,0.2848358154296875
1701290740659873500,2.55787353515625,-0.1965179443359375,0.661346435546875,0.295928955078125
1701290740669948400,2.567948486328125,-0.192718505859375,0.62603759765625,0.3113861083984375
1701290740680023600,2.5780234375,-0.185211181640625,0.6011199951171875,0.319793701171875
1701290740690099500,2.588099365234375,-0.1805877685546875,0.5975341796875,0.317230224609375
1701290740700174300,2.59817431640625,-0.174774169921875,0.620849609375,0.3100128173828125
1701290740710249500,2.60824951171875,-0.166290283203125,0.637603759765625,0.2996978759765625
1701290740720324600,2.61832470703125,-0.1717376708984375,0.646392822265625,0.291107177734375
1701290740730400300,2.628400146484375,-0.1748199462890625,0.6495819091796875,0.304931640625
1701290740740475400,2.638475341796875,-0.1579742431640625,0.633544921875,0.3238372802734375
1701290740750550500,2.648550537109375,-0.127197265625,0.6228179931640625,0.347869873046875
1701290740760625400,2.65862548828125,-0.103424072265625,0.629730224609375,0.375091552734375
1701290740770701300,2.668701416015625,-0.0926513671875,0.6471405029296875,0.4010009765625
1701290740780776400,2.6787763671875,-0.0899200439453125,0.6524810791015625,0.406280517578125
1701290740790851300,2.688851318359375,-0.1006622314453125,0.6418914794921875,0.3994598388671875
1701290740800927500,2.698927490234375,-0.12225341796875,0.63726806640625,0.397064208984375
1701290740811002400,2.70900244140625,-0.1507110595703125,0.6375732421875,0.3956298828125
1701290740821077200,2.7190771484375,-0.1877288818359375,0.6356353759765625,0.3979034423828125
1701290740831152400,2.72915234375,-0.2239532470703125,0.6212615966796875,0.402252197265625
1701290740841228500,2.739228515625,-0.2353973388671875,0.5980224609375,0.397705078125
1701290740851303400,2.749303466796875,-0.2193603515625,0.5846099853515625,0.39263916015625
1701290740861378300,2.75937841796875,-0.235504150390625,0.5861968994140625,0.390838623046875
1701290740871454500,2.769454345703125,-0.2894134521484375,0.5958251953125,0.414947509765625
1701290740881529300,2.779529296875,-0.3450775146484375,0.607879638671875,0.4846343994140625
1701290740891604500,2.7896044921875,-0.3634796142578125,0.6202392578125,0.5542144775390625
1701290740901679600,2.7996796875,-0.3446502685546875,0.6543731689453125,0.5936126708984375
1701290740911755300,2.80975537109375,-0.342803955078125,0.732696533203125,0.57672119140625
1701290740921830400,2.819830322265625,-0.3391265869140625,0.8392791748046875,0.537628173828125
1701290740931905500,2.829905517578125,-0.3150177001953125,0.930206298828125,0.50146484375
1701290740941980400,2.83998046875,-0.2849578857421875,1.00469970703125,0.46649169921875
1701290740952056300,2.850056396484375,-0.253662109375,1.05560302734375,0.447296142578125
1701290740962131500,2.86013134765625,-0.2271881103515625,1.0498046875,0.445709228515625
1701290740972206300,2.870206298828125,-0.2022705078125,0.9615325927734375,0.4553985595703125
1701290740982281500,2.880281494140625,-0.175628662109375,0.8594207763671875,0.4725799560546875
1701290740992357400,2.890357421875,-0.138824462890625,0.798858642578125,0.4789886474609375
1701290741002432300,2.900432373046875,-0.1143341064453125,0.7918853759765625,0.4818267822265625
1701290741012507400,2.91050732421875,-0.124114990234375,0.8779754638671875,0.5004425048828125
1701290741022583600,2.92058349609375,-0.1413726806640625,1.0570220947265625,0.5822296142578125
1701290741032658400,2.930658447265625,-0.226776123046875,1.1942596435546875,0.696044921875
1701290741042733300,2.9407333984375,-0.429901123046875,1.3028564453125,0.85009765625
1701290741052808400,2.950808349609375,-0.538818359375,1.316864013671875,0.996429443359375
1701290741062884400,2.96088427734375,-0.2990264892578125,1.2805328369140625,1.023529052734375
1701290741072959500,2.97095947265625,0.0233154296875,1.2993011474609375,0.937347412109375
1701290741083034600,2.98103466796875,0.134857177734375,1.38037109375,0.792694091796875
1701290741093110300,2.9911103515625,-0.0804443359375,1.4782867431640625,0.6153106689453125
1701290741103185400,3.001185302734375,-0.379852294921875,1.569091796875,0.4635009765625
1701290741113260500,3.011260498046875,-0.400543212890625,1.46392822265625,0.4844970703125
1701290741123335400,3.02133544921875,-0.11376953125,1.187164306640625,0.598968505859375
1701290741133411300,3.031411376953125,0.15093994140625,1.0191497802734375,0.668487548828125
1701290741143486500,3.041486572265625,0.191192626953125,0.902801513671875,0.623291015625
1701290741153561300,3.051561279296875,0.1665802001953125,0.8310394287109375,0.5334014892578125
1701290741163636500,3.061636474609375,0.193572998046875,0.814422607421875,0.47711181640625
1701290741173712400,3.07171240234375,0.2570648193359375,0.879547119140625,0.4254302978515625
1701290741183787300,3.081787353515625,0.3318023681640625,0.9987030029296875,0.3726959228515625
1701290741193862400,3.0918623046875,0.4159698486328125,1.067596435546875,0.3257904052734375
1701290741203938600,3.1019384765625,0.47808837890625,1.069915771484375,0.290496826171875
1701290741214013700,3.112013671875,0.473724365234375,1.0061187744140625,0.2564239501953125
1701290741224088300,3.12208837890625,0.3889312744140625,0.9304351806640625,0.2754058837890625
1701290741234163500,3.13216357421875,0.2410888671875,0.91094970703125,0.40484619140625
1701290741244239600,3.142239501953125,0.0587615966796875,0.9375762939453125,0.568939208984375
1701290741254314500,3.152314453125,-0.1769256591796875,0.9462890625,0.6852874755859375
1701290741264389600,3.1623896484375,-0.355377197265625,0.92144775390625,0.6843719482421875
1701290741274464300,3.17246435546875,-0.27227783203125,0.8865814208984375,0.5891571044921875
1701290741284540400,3.18254052734375,-0.049652099609375,0.8557281494140625,0.504119873046875
1701290741294615600,3.192615478515625,0.0482635498046875,0.8412628173828125,0.4228973388671875
1701290741304690400,3.2026904296875,0.05645751953125,0.847015380859375,0.349395751953125
1701290741314766300,3.212766357421875,0.036865234375,0.857666015625,0.3256072998046875
1701290741324841500,3.222841552734375,0.004364013671875,0.865203857421875,0.3520050048828125
1701290741334916400,3.232916259765625,-0.0233612060546875,0.8575286865234375,0.413116455078125
1701290741344991500,3.242991455078125,-0.0324554443359375,0.8197174072265625,0.4694976806640625
1701290741355067400,3.2530673828125,-0.0280609130859375,0.7743988037109375,0.5024871826171875
1701290741365142300,3.263142333984375,-0.025360107421875,0.7456512451171875,0.54254150390625
1701290741375217400,3.273217529296875,-0.02587890625,0.742095947265625,0.594970703125
1701290741385292500,3.28329248046875,-0.036651611328125,0.7411956787109375,0.6412811279296875
1701290741395368700,3.29336865234375,-0.0657196044921875,0.7158355712890625,0.6645050048828125
1701290741405443300,3.303443359375,-0.1278533935546875,0.683013916015625,0.6714019775390625
1701290741415518500,3.3135185546875,-0.2013397216796875,0.6699981689453125,0.6762847900390625
1701290741425594600,3.3235947265625,-0.2345123291015625,0.6781005859375,0.6629791259765625
1701290741435669500,3.33366943359375,-0.2040863037109375,0.677215576171875,0.5993499755859375
1701290741445744600,3.34374462890625,-0.127410888671875,0.67462158203125,0.5142364501953125
1701290741455819300,3.3538193359375,-0.067047119140625,0.7019500732421875,0.450775146484375
1701290741465895400,3.3638955078125,-0.0962066650390625,0.7339630126953125,0.4054718017578125
1701290741475970600,3.373970458984375,-0.1617584228515625,0.7623443603515625,0.362548828125
1701290741486045400,3.38404541015625,-0.17950439453125,0.7993011474609375,0.3379974365234375
1701290741496120600,3.39412060546875,-0.146270751953125,0.8263092041015625,0.3300018310546875
1701290741506196500,3.404196533203125,-0.13702392578125,0.8127899169921875,0.293212890625
1701290741516271400,3.414271240234375,-0.163787841796875,0.77410888671875,0.1993560791015625
1701290741526346500,3.424346435546875,-0.1282958984375,0.7437744140625,0.0996856689453125
1701290741536422400,3.43442236328125,-0.03057861328125,0.7067718505859375,0.079620361328125
1701290741546497500,3.44449755859375,0.0622711181640625,0.6385345458984375,0.1207427978515625
1701290741556572400,3.454572509765625,0.081024169921875,0.5426177978515625,0.1764373779296875
1701290741566647600,3.4646474609375,-0.00823974609375,0.4586334228515625,0.238983154296875
1701290741576723500,3.474723388671875,-0.054443359375,0.4727325439453125,0.3345184326171875
1701290741586798300,3.48479833984375,0.071746826171875,0.7042694091796875,0.5008087158203125
1701290741596873500,3.49487353515625,0.1716461181640625,0.892791748046875,0.5821990966796875
1701290741606948400,3.5049482421875,0.0959014892578125,0.9178924560546875,0.6533355712890625
1701290741617024500,3.5150244140625,-0.19915771484375,0.8219757080078125,0.78704833984375
1701290741627099400,3.525099365234375,-0.4335784912109375,0.6669769287109375,0.888580322265625
1701290741637174300,3.53517431640625,-0.27374267578125,0.5924224853515625,0.8284912109375
1701290741647250400,3.54525048828125,-0.141021728515625,0.625885009765625,0.69488525390625
1701290741657325600,3.55532568359375,-0.2360687255859375,0.713043212890625,0.529266357421875
1701290741667400400,3.565400390625,-0.2449188232421875,0.796051025390625,0.46356201171875
1701290741677475300,3.575475341796875,-0.2916717529296875,0.9492950439453125,0.527587890625
1701290741687551500,3.585551513671875,-0.2885894775390625,1.1547088623046875,0.6215667724609375
1701290741697626400,3.59562646484375,-0.2555694580078125,1.269378662109375,0.696502685546875
1701290741707701500,3.605701416015625,-0.244781494140625,1.257049560546875,0.7397003173828125
1701290741717776600,3.615776611328125,-0.2066192626953125,1.15985107421875,0.749847412109375
1701290741727852500,3.6258525390625,-0.216156005859375,1.1201171875,0.7756195068359375
1701290741737927400,3.635927490234375,-0.25225830078125,1.2866668701171875,0.8900909423828125
1701290741748002600,3.64600244140625,-0.2056732177734375,1.6018218994140625,1.0341644287109375
1701290741758078500,3.656078369140625,-0.18353271484375,1.927978515625,1.07977294921875
1701290741768153300,3.6661533203125,-0.18731689453125,1.909912109375,0.8064727783203125
1701290741778228500,3.676228515625,-0.1324005126953125,1.4276885986328125,0.503875732421875
1701290741788303400,3.686303466796875,-0.090728759765625,1.0012969970703125,0.5377197265625
1701290741798379500,3.696379638671875,-0.114776611328125,0.744873046875,0.5800628662109375
1701290741808454400,3.706454345703125,-0.159210205078125,0.6610260009765625,0.5546722412109375
1701290741818529300,3.716529296875,-0.1448211669921875,0.7220458984375,0.5345001220703125
1701290741828604400,3.7266044921875,-0.1119537353515625,0.8799591064453125,0.5428009033203125
1701290741838680600,3.7366806640625,-0.1591796875,1.0781402587890625,0.54620361328125
1701290741848755500,3.74675537109375,-0.22735595703125,1.2094268798828125,0.5512237548828125
1701290741858830300,3.756830322265625,-0.2615203857421875,1.2071075439453125,0.5491180419921875
1701290741868906500,3.766906494140625,-0.26092529296875,1.0594024658203125,0.5296478271484375
1701290741878981400,3.7769814453125,-0.2329559326171875,0.8669891357421875,0.5203399658203125
1701290741889056500,3.787056396484375,-0.192108154296875,0.7251129150390625,0.5150146484375
1701290741899131600,3.797131591796875,-0.13671875,0.644927978515625,0.49774169921875
1701290741909207600,3.80720751953125,-0.081634521484375,0.616302490234375,0.4605560302734375
1701290741919282400,3.817282470703125,-0.0431060791015625,0.614044189453125,0.3849639892578125
1701290741929357600,3.827357666015625,-0.031646728515625,0.6176605224609375,0.2901458740234375
1701290741939432400,3.837432373046875,-0.0364990234375,0.6229705810546875,0.1956329345703125
1701290741949508400,3.84750830078125,-0.032470703125,0.6176300048828125,0.1309967041015625
1701290741959583500,3.85758349609375,-0.014434814453125,0.595458984375,0.0955810546875
1701290741969658400,3.867658447265625,0.0027923583984375,0.5648345947265625,0.07000732421875
1701290741979734500,3.877734619140625,0.010009765625,0.538970947265625,0.051666259765625
1701290741989809400,3.887809326171875,-0.0062713623046875,0.5173492431640625,0.038177490234375
1701290741999884300,3.89788427734375,-0.0448455810546875,0.5157623291015625,0.03558349609375
1701290742009959400,3.90795947265625,-0.0960845947265625,0.5373382568359375,0.0434112548828125
1701290742020035600,3.91803564453125,-0.14190673828125,0.5768890380859375,0.070037841796875
1701290742030110500,3.9281103515625,-0.1691436767578125,0.615081787109375,0.1102294921875
1701290742040185300,3.938185302734375,-0.1513824462890625,0.6601104736328125,0.1615142822265625
1701290742050260500,3.948260498046875,-0.1210174560546875,0.6923065185546875,0.192657470703125
1701290742060336400,3.95833642578125,-0.1261138916015625,0.680511474609375,0.200836181640625
1701290742070411500,3.96841162109375,-0.187286376953125,0.6371917724609375,0.193603515625
1701290742080486700,3.978486572265625,-0.242279052734375,0.5995635986328125,0.2212677001953125
1701290742090562600,3.9885625,-0.2328338623046875,0.578521728515625,0.30694580078125
1701290742100637400,3.998637451171875,-0.1944122314453125,0.55291748046875,0.431732177734375
1701290742110712800,4.008712890625,-0.1483154296875,0.5281982421875,0.5802001953125
1701290742120788000,4.0187880859375,-0.1234588623046875,0.5226287841796875,0.716949462890625
1701290742130863900,4.02886376953125,-0.1499176025390625,0.54376220703125,0.827117919921875
1701290742140938800,4.038938720703125,-0.222381591796875,0.578521728515625,0.9277801513671875
1701290742151014000,4.049013916015625,-0.332855224609375,0.61273193359375,1.006134033203125
1701290742161088800,4.0590888671875,-0.3622283935546875,0.612701416015625,1.0152740478515625
1701290742171164700,4.06916455078125,-0.3441619873046875,0.6080169677734375,0.943572998046875
1701290742181239800,4.07923974609375,-0.31951904296875,0.63623046875,0.8247833251953125
1701290742191314700,4.089314697265625,-0.2917633056640625,0.68902587890625,0.6954498291015625
1701290742201390800,4.099390869140625,-0.303009033203125,0.7476348876953125,0.5783233642578125
1701290742211465700,4.1094658203125,-0.33135986328125,0.812347412109375,0.49554443359375
1701290742221540600,4.11954052734375,-0.34014892578125,0.885467529296875,0.4377899169921875
1701290742231615700,4.12961572265625,-0.3592529296875,0.9506378173828125,0.391357421875
1701290742241692000,4.13969189453125,-0.395172119140625,0.9624176025390625,0.3563232421875
1701290742251766800,4.149766845703125,-0.3842620849609375,0.9141998291015625,0.335906982421875
1701290742261841700,4.159841552734375,-0.3076324462890625,0.9572296142578125,0.393768310546875
1701290742271916800,4.169916748046875,-0.22137451171875,1.123077392578125,0.5721282958984375
1701290742281993000,4.179992919921875,-0.342864990234375,1.321136474609375,0.812713623046875
1701290742292067800,4.19006787109375,-0.3731689453125,1.46868896484375,1.0474395751953125
1701290742302143000,4.20014306640625,-0.0166473388671875,1.5183258056640625,1.0511932373046875
1701290742312219000,4.210218994140625,0.311798095703125,1.554046630859375,0.810516357421875
1701290742322293800,4.220293701171875,0.3214569091796875,1.58245849609375,0.5321044921875
1701290742332369000,4.230368896484375,0.0337066650390625,1.8008575439453125,0.4701995849609375
1701290742342443800,4.24044384765625,-0.819000244140625,2.3095550537109375,0.54986572265625
1701290742352519700,4.250519775390625,-1.4171295166015625,2.384185791015625,0.654876708984375
1701290742362594800,4.2605947265625,-0.141693115234375,1.307342529296875,0.5812225341796875
1701290742372669700,4.270669677734375,0.7087554931640625,0.747650146484375,0.4141693115234375
1701290742382745900,4.280745849609375,0.559356689453125,0.5307159423828125,0.4156341552734375
1701290742392820700,4.29082080078125,0.4447479248046875,0.344390869140625,0.4517059326171875
1701290742402895600,4.3008955078125,0.57318115234375,0.278350830078125,0.5143585205078125
1701290742412970800,4.310970703125,0.7368927001953125,0.4344635009765625,0.531890869140625
1701290742423047000,4.321046875,0.8356475830078125,0.7763671875,0.5033721923828125
1701290742433121800,4.331121826171875,0.9181365966796875,1.08062744140625,0.48876953125
1701290742443196700,4.34119677734375,0.894989013671875,1.37890625,0.4980010986328125
1701290742453271800,4.351271728515625,0.683502197265625,1.54571533203125,0.4928436279296875
1701290742463348000,4.361347900390625,0.3646087646484375,1.4904022216796875,0.512542724609375
1701290742473422800,4.3714228515625,-0.548492431640625,1.176361083984375,0.52532958984375
1701290742483498000,4.381498046875,-1.94537353515625,0.8740997314453125,0.5799407958984375
1701290742493572600,4.391572509765625,-1.0701141357421875,0.75885009765625,0.464080810546875
1701290742503648800,4.401648681640625,0.049560546875,0.6847686767578125,0.4368743896484375
1701290742513724000,4.411723876953125,0.2493438720703125,0.668548583984375,0.5164337158203125
1701290742523798800,4.421798828125,0.1638641357421875,0.681060791015625,0.570037841796875
1701290742533874700,4.431874755859375,0.03936767578125,0.7181396484375,0.568939208984375
1701290742543949800,4.44194970703125,-0.0037841796875,0.7786865234375,0.5353851318359375
1701290742554024700,4.452024658203125,0.000091552734375,0.8167572021484375,0.5336456298828125
1701290742564099800,4.462099853515625,-0.0096435546875,0.8399810791015625,0.5653533935546875
1701290742574175700,4.47217578125,-0.0411529541015625,0.854827880859375,0.572479248046875
1701290742584250600,4.482250732421875,-0.0247650146484375,0.8201141357421875,0.5778350830078125
1701290742594325800,4.49232568359375,0.010009765625,0.7427215576171875,0.5921783447265625
1701290742604402000,4.50240185546875,0.037445068359375,0.6551055908203125,0.5847015380859375
1701290742614476800,4.512476806640625,-0.00341796875,0.5630950927734375,0.58123779296875
1701290742624551700,4.5225517578125,-0.1212921142578125,0.5050048828125,0.6210784912109375
1701290742634626800,4.532626708984375,-0.24273681640625,0.5012664794921875,0.6802520751953125
1701290742644703000,4.542702880859375,-0.3658905029296875,0.546875,0.7239837646484375
1701290742654777900,4.55277783203125,-0.4414520263671875,0.61920166015625,0.6622772216796875
1701290742664852700,4.562852783203125,-0.354095458984375,0.6941070556640625,0.469696044921875
1701290742674927600,4.572927734375,-0.194488525390625,0.7484893798828125,0.31146240234375
1701290742685003800,4.583003662109375,-0.1063385009765625,0.78546142578125,0.2167816162109375
1701290742695079000,4.593078857421875,-0.0592041015625,0.8150634765625,0.1590576171875
1701290742705153800,4.60315380859375,0.0015716552734375,0.8315887451171875,0.1353912353515625
1701290742715228700,4.613228759765625,0.0582275390625,0.8272705078125,0.152099609375
1701290742725304800,4.623304931640625,0.1081085205078125,0.7654571533203125,0.179779052734375
1701290742735379700,4.633379638671875,0.1574249267578125,0.6504974365234375,0.2315673828125
1701290742745454800,4.643454833984375,0.1417236328125,0.5296173095703125,0.316070556640625
1701290742755530800,4.65353076171875,0.114837646484375,0.4657135009765625,0.4329376220703125
1701290742765605600,4.663605712890625,0.1572418212890625,0.496185302734375,0.5454864501953125
1701290742775680800,4.6736806640625,0.2168426513671875,0.5915679931640625,0.6212615966796875
1701290742785756000,4.683755859375,0.174041748046875,0.68133544921875,0.6853485107421875
1701290742795831800,4.693831787109375,-0.0618438720703125,0.725860595703125,0.779022216796875
1701290742805906700,4.70390673828125,-0.28594970703125,0.761932373046875,0.8280029296875
1701290742815981800,4.71398193359375,-0.193328857421875,0.84722900390625,0.71978759765625
1701290742826056700,4.724056640625,0.035369873046875,0.9583282470703125,0.535614013671875
1701290742836132900,4.7341328125,0.0279541015625,1.00164794921875,0.4113311767578125
1701290742846207700,4.744207763671875,-0.1251220703125,0.9592132568359375,0.37969970703125
1701290742856282600,4.75428271484375,-0.26763916015625,0.878662109375,0.4168853759765625
1701290742866358800,4.76435888671875,-0.4196319580078125,0.8303985595703125,0.5340576171875
1701290742876434000,4.774433837890625,-0.4339447021484375,0.859283447265625,0.69500732421875
1701290742886508800,4.7845087890625,-0.33831787109375,0.951812744140625,0.847991943359375
1701290742896583700,4.794583740234375,-0.479156494140625,1.019561767578125,0.9956207275390625
1701290742906659800,4.804659912109375,-0.6946563720703125,1.0455474853515625,1.1102752685546875
1701290742916734700,4.814734619140625,-0.578460693359375,1.0837860107421875,1.0732574462890625
1701290742926809900,4.824809814453125,-0.31988525390625,1.157684326171875,0.8710479736328125
1701290742936885000,4.834885009765625,-0.2118072509765625,1.1509246826171875,0.6614227294921875
1701290742946960600,4.844960693359375,-0.1758575439453125,1.1072845458984375,0.520782470703125
1701290742957035800,4.855035888671875,-0.1496124267578125,1.208770751953125,0.5231781005859375
1701290742967111000,4.86511083984375,-0.0850067138671875,1.4430084228515625,0.6645050048828125
1701290742977186600,4.8751865234375,-0.1386566162109375,1.7746124267578125,0.790679931640625
1701290742987261700,4.88526171875,-0.209228515625,2.0220947265625,0.8188934326171875
1701290742997336800,4.8953369140625,-0.17108154296875,1.891571044921875,0.7279205322265625
1701290743007411700,4.90541162109375,-0.0647125244140625,1.32611083984375,0.6629638671875
1701290743017488000,4.91548779296875,0.012115478515625,0.8872833251953125,0.6686248779296875
1701290743027562800,4.925562744140625,0.01904296875,0.68560791015625,0.605072021484375
1701290743037637600,4.9356376953125,-0.05743408203125,0.634185791015625,0.481536865234375
1701290743047712800,4.945712646484375,-0.126678466796875,0.65374755859375,0.353546142578125
1701290743057789000,4.955788818359375,-0.16241455078125,0.6943359375,0.291595458984375
1701290743067863800,4.96586376953125,-0.197601318359375,0.7465667724609375,0.3176422119140625
1701290743077938700,4.975938720703125,-0.2144927978515625,0.784912109375,0.404754638671875
1701290743088014800,4.986014892578125,-0.2069549560546875,0.7956695556640625,0.4909515380859375
1701290743098089700,4.99608984375,-0.191253662109375,0.78143310546875,0.535736083984375
1701290743108164400,5.006164306640625,-0.1867828369140625,0.742889404296875,0.5341033935546875
1701290743118239500,5.016239501953125,-0.197540283203125,0.6942138671875,0.5030670166015625
1701290743128315400,5.0263154296875,-0.2071075439453125,0.640869140625,0.4620513916015625
1701290743138390300,5.036390380859375,-0.204498291015625,0.595367431640625,0.4199371337890625
1701290743148465400,5.04646533203125,-0.1967315673828125,0.56268310546875,0.37548828125
1701290743158541600,5.05654150390625,-0.166778564453125,0.5381927490234375,0.3243408203125
1701290743168616200,5.0666162109375,-0.1218719482421875,0.5192108154296875,0.2604827880859375
1701290743178691300,5.07669140625,-0.08807373046875,0.510406494140625,0.184661865234375
1701290743188766200,5.08676611328125,-0.0809173583984375,0.5214385986328125,0.11431884765625
1701290743198842400,5.09684228515625,-0.08892822265625,0.5563507080078125,0.0769805908203125
1701290743208917500,5.10691748046875,-0.1028900146484375,0.611480712890625,0.0809478759765625
1701290743218992000,5.1169921875,-0.1135406494140625,0.680145263671875,0.120086669921875
1701290743229067300,5.1270673828125,-0.1190185546875,0.7322998046875,0.18280029296875
1701290743239143400,5.137143310546875,-0.1150054931640625,0.760498046875,0.2451171875
1701290743249218300,5.14721826171875,-0.125152587890625,0.778472900390625,0.290557861328125
1701290743259293400,5.15729345703125,-0.1551513671875,0.778564453125,0.3220062255859375
1701290743269368300,5.167368408203125,-0.2055206298828125,0.74041748046875,0.3436431884765625
1701290743279444500,5.177444580078125,-0.249237060546875,0.688995361328125,0.360992431640625
1701290743289519400,5.187519287109375,-0.2533721923828125,0.6453704833984375,0.3777008056640625
1701290743299594500,5.197594482421875,-0.228668212890625,0.605377197265625,0.40179443359375
1701290743309670400,5.20767041015625,-0.2053985595703125,0.5607452392578125,0.438690185546875
1701290743319745300,5.217745361328125,-0.190216064453125,0.5224456787109375,0.49066162109375
1701290743329820400,5.2278203125,-0.1803436279296875,0.4925994873046875,0.5453033447265625
1701290743339895300,5.237895263671875,-0.17327880859375,0.473297119140625,0.5898895263671875
1701290743349971200,5.24797119140625,-0.1894378662109375,0.4471282958984375,0.609649658203125
1701290743360046300,5.25804638671875,-0.22613525390625,0.4181976318359375,0.615875244140625
1701290743370121200,5.268121337890625,-0.2564544677734375,0.39263916015625,0.6127471923828125
1701290743380196400,5.2781962890625,-0.2703704833984375,0.3863525390625,0.6235198974609375
1701290743390272300,5.288272216796875,-0.2346649169921875,0.4096832275390625,0.6353302001953125
1701290743400347100,5.29834716796875,-0.1457672119140625,0.45208740234375,0.6360931396484375
1701290743410422300,5.30842236328125,-0.0684661865234375,0.5059051513671875,0.63165283203125
1701290743420498400,5.31849853515625,-0.0162811279296875,0.5929107666015625,0.6074066162109375
1701290743430573300,5.3285732421875,0.00238037109375,0.697113037109375,0.594390869140625
1701290743440648200,5.338648193359375,-0.0270233154296875,0.798492431640625,0.583404541015625
1701290743450723300,5.348723388671875,-0.10711669921875,0.8766326904296875,0.540008544921875
1701290743460799500,5.358799560546875,-0.251068115234375,0.929290771484375,0.472320556640625
1701290743470874400,5.368874267578125,-0.4077301025390625,0.9554901123046875,0.4140777587890625
1701290743480949500,5.378949462890625,-0.516204833984375,0.95086669921875,0.4207916259765625
1701290743491025400,5.389025390625,-0.47772216796875,1.0230560302734375,0.554901123046875
1701290743501100300,5.399100341796875,-0.3428802490234375,1.1670074462890625,0.7522735595703125
1701290743511175400,5.409175537109375,-0.4101409912109375,1.3609771728515625,0.951934814453125
1701290743521250300,5.419250244140625,-0.4602203369140625,1.5081024169921875,1.0975341796875
1701290743531326200,5.429326171875,-0.25146484375,1.508270263671875,1.0434417724609375
1701290743541401300,5.4394013671875,0.158599853515625,1.43817138671875,0.760650634765625
1701290743551476200,5.449476318359375,0.33636474609375,1.5028533935546875,0.56048583984375
1701290743561551400,5.45955126953125,-0.0050506591796875,1.8922271728515625,0.7119140625
1701290743571627300,5.469627197265625,-2.7436981201171875,2.977386474609375,0.8610687255859375
1701290743581702100,5.4797021484375,-1.8621063232421875,2.4425048828125,1.255645751953125
1701290743591777300,5.48977734375,1.311492919921875,0.992340087890625,0.7594451904296875
1701290743601853400,5.499853515625,1.215972900390625,0.6159820556640625,0.4183502197265625
1701290743611928300,5.50992822265625,0.5514373779296875,0.3487396240234375,0.40869140625
1701290743622003200,5.520003173828125,0.3731689453125,0.182647705078125,0.436981201171875
1701290743632078300,5.530078369140625,0.4584197998046875,0.168609619140625,0.4757843017578125
1701290743642154500,5.540154541015625,0.6269683837890625,0.347137451171875,0.4591827392578125
1701290743652229400,5.5502294921875,0.7449951171875,0.6231536865234375,0.372467041015625
1701290743662304500,5.560304443359375,0.739013671875,1.0229644775390625,0.376800537109375
1701290743672379100,5.570379150390625,0.642730712890625,1.4649810791015625,0.5229949951171875
1701290743682455300,5.580455322265625,0.44512939453125,1.7225189208984375,0.733673095703125
1701290743692530400,5.590530517578125,-0.272491455078125,1.5001373291015625,0.8474578857421875
1701290743702605300,5.600605224609375,-1.0261383056640625,0.9702301025390625,0.8188934326171875
1701290743712681200,5.61068115234375,-0.6724853515625,0.763458251953125,0.574371337890625
1701290743722756400,5.62075634765625,-0.0251617431640625,0.729461669921875,0.4072113037109375
1701290743732831200,5.630831298828125,0.212921142578125,0.7377471923828125,0.351959228515625
1701290743742906400,5.64090625,0.2291259765625,0.833343505859375,0.3234405517578125
1701290743752982300,5.650982177734375,0.18768310546875,0.93621826171875,0.2886962890625
1701290743763057200,5.66105712890625,0.14910888671875,0.9618682861328125,0.2650146484375
1701290743773132300,5.67113232421875,0.094696044921875,0.9553070068359375,0.2562713623046875
1701290743783207400,5.68120751953125,-0.0037994384765625,0.9462738037109375,0.309478759765625
1701290743793283300,5.691283447265625,-0.0777740478515625,0.91986083984375,0.3963165283203125
1701290743803358200,5.701358154296875,-0.080780029296875,0.8714141845703125,0.456512451171875
1701290743813433300,5.711433349609375,-0.0502777099609375,0.8085479736328125,0.493927001953125
1701290743823509500,5.721509521484375,-0.008392333984375,0.7555389404296875,0.52508544921875
1701290743833584400,5.73158447265625,0.012969970703125,0.72747802734375,0.558990478515625
1701290743843659500,5.741659423828125,0.0086822509765625,0.7015228271484375,0.5799560546875
1701290743853734100,5.751734130859375,0.010833740234375,0.6583251953125,0.5641937255859375
1701290743863810300,5.761810302734375,0.022247314453125,0.6034698486328125,0.5385894775390625
1701290743873885400,5.771885498046875,0.00042724609375,0.557342529296875,0.533416748046875
1701290743883960300,5.781960205078125,-0.1112060546875,0.5679779052734375,0.573699951171875
1701290743894035500,5.792035400390625,-0.3002166748046875,0.6624298095703125,0.64678955078125
1701290743904111400,5.802111328125,-0.3830413818359375,0.740325927734375,0.6925201416015625
1701290743914186200,5.812186279296875,-0.2361907958984375,0.728515625,0.6667022705078125
1701290743924261400,5.822261474609375,-0.04595947265625,0.7068634033203125,0.5865478515625
1701290743934337300,5.832337158203125,-0.011962890625,0.6839752197265625,0.523834228515625
1701290743944412200,5.842412109375,-0.1239776611328125,0.6367034912109375,0.478271484375
1701290743954487300,5.8524873046875,-0.281646728515625,0.58740234375,0.42889404296875
1701290743964562400,5.8625625,-0.3184051513671875,0.6077117919921875,0.3607330322265625
1701290743974638300,5.872638427734375,-0.1743011474609375,0.7161865234375,0.269073486328125
1701290743984713200,5.882713134765625,-0.0122222900390625,0.8311614990234375,0.197479248046875
1701290743994788400,5.892788330078125,0.092193603515625,0.9012908935546875,0.157257080078125
1701290744004863200,5.90286328125,0.1505279541015625,0.8991241455078125,0.132415771484375
1701290744014939400,5.912939453125,0.1531524658203125,0.82427978515625,0.134368896484375
1701290744025014500,5.9230146484375,0.0844268798828125,0.7305145263671875,0.18365478515625
1701290744035089200,5.933089111328125,-0.0307464599609375,0.668487548828125,0.303863525390625
1701290744045165300,5.943165283203125,-0.043853759765625,0.6849365234375,0.45794677734375
1701290744055240400,5.953240478515625,0.0441741943359375,0.749542236328125,0.5859375
1701290744065315300,5.9633154296875,0.042144775390625,0.7739715576171875,0.6965484619140625
1701290744075390500,5.973390380859375,-0.033416748046875,0.7330780029296875,0.78314208984375
1701290744085466400,5.98346630859375,-0.1825408935546875,0.6377105712890625,0.8515167236328125
1701290744095541200,5.993541259765625,-0.313201904296875,0.5370025634765625,0.8849945068359375
1701290744105616400,6.003616455078125,-0.176971435546875,0.56292724609375,0.7703094482421875
1701290744115691300,6.013691162109375,-0.0819854736328125,0.7343292236328125,0.591888427734375
1701290744125767200,6.02376708984375,-0.181427001953125,0.8623504638671875,0.4720001220703125
1701290744135842000,6.033842041015625,-0.2324371337890625,0.9058074951171875,0.450927734375
1701290744145917200,6.043917236328125,-0.2728424072265625,0.9621124267578125,0.50909423828125
1701290744155993300,6.053993408203125,-0.2678985595703125,1.086944580078125,0.6189422607421875
1701290744166068000,6.06406787109375,-0.1892547607421875,1.1966552734375,0.7266082763671875
1701290744176143000,6.07414306640625,-0.2092742919921875,1.2150421142578125,0.8042144775390625
1701290744186218200,6.08421826171875,-0.2510986328125,1.127105712890625,0.8717498779296875
1701290744196294100,6.094294189453125,-0.218017578125,0.99810791015625,0.887969970703125
1701290744206369300,6.104369384765625,-0.167816162109375,0.967254638671875,0.8298797607421875
1701290744216444200,6.114444091796875,-0.1617889404296875,1.114044189453125,0.8136138916015625
1701290744226519000,6.12451904296875,-0.14263916015625,1.3428955078125,0.8664703369140625
1701290744236595200,6.13459521484375,-0.1278839111328125,1.563018798828125,0.9301300048828125
1701290744246670300,6.14467041015625,-0.1385650634765625,1.6394500732421875,0.890625
1701290744256745200,6.1547451171875,-0.1900634765625,1.47198486328125,0.7530670166015625
1701290744266821000,6.164821044921875,-0.1816253662109375,1.1768951416015625,0.6808929443359375
1701290744276896300,6.174896240234375,-0.1321868896484375,0.988494873046875,0.687896728515625
1701290744286971100,6.18497119140625,-0.0993499755859375,0.9055633544921875,0.7007293701171875
1701290744297046300,6.19504638671875,-0.08917236328125,0.8754119873046875,0.7009735107421875
1701290744307122200,6.2051220703125,-0.0954437255859375,0.8808746337890625,0.66717529296875
1701290744317197000,6.215197021484375,-0.118072509765625,0.9254302978515625,0.6256561279296875
1701290744327272200,6.225272216796875,-0.162750244140625,0.9684295654296875,0.5810089111328125
1701290744337347300,6.235347412109375,-0.2060699462890625,0.95758056640625,0.5575714111328125
1701290744347423000,6.245423095703125,-0.2462615966796875,0.8978424072265625,0.5475921630859375
1701290744357498000,6.255498046875,-0.2720489501953125,0.8300323486328125,0.5366973876953125
1701290744367573200,6.2655732421875,-0.2662353515625,0.7711181640625,0.52984619140625
1701290744377649200,6.275649169921875,-0.237579345703125,0.7238006591796875,0.504302978515625
1701290744387724300,6.285724365234375,-0.21600341796875,0.701263427734375,0.4609527587890625
1701290744397799200,6.295799072265625,-0.204833984375,0.6921844482421875,0.4166717529296875
1701290744407874000,6.3058740234375,-0.1949615478515625,0.685760498046875,0.3678131103515625
1701290744417950200,6.3159501953125,-0.178497314453125,0.676971435546875,0.3202972412109375
1701290744428025300,6.326025390625,-0.145233154296875,0.661865234375,0.2733306884765625
1701290744438100200,6.336100341796875,-0.1026153564453125,0.644500732421875,0.228973388671875
1701290744448175000,6.346175048828125,-0.07379150390625,0.6184234619140625,0.1827545166015625
1701290744458251300,6.356251220703125,-0.069976806640625,0.591827392578125,0.134002685546875
1701290744468326100,6.366326171875,-0.0872802734375,0.5799713134765625,0.0963287353515625
1701290744478401300,6.3764013671875,-0.120635986328125,0.5886993408203125,0.09613037109375
1701290744488477200,6.386477294921875,-0.13623046875,0.6138916015625,0.141448974609375
1701290744498552000,6.396552001953125,-0.1118927001953125,0.6417999267578125,0.2264404296875
1701290744508627200,6.406627197265625,-0.0804443359375,0.657440185546875,0.29241943359375
1701290744518702300,6.416702392578125,-0.06201171875,0.69818115234375,0.3391265869140625
1701290744528778000,6.426778076171875,-0.0441436767578125,0.744476318359375,0.3757171630859375
1701290744538853000,6.43685302734375,-0.047576904296875,0.739501953125,0.375762939453125
1701290744548928300,6.44692822265625,-0.07916259765625,0.687530517578125,0.3526153564453125
1701290744559003100,6.457003173828125,-0.10845947265625,0.629974365234375,0.327178955078125
1701290744569079000,6.4670791015625,-0.1086883544921875,0.568511962890625,0.3057861328125
1701290744579154200,6.477154296875,-0.0939483642578125,0.5095977783203125,0.29510498046875
1701290744589229000,6.48722900390625,-0.0851287841796875,0.476715087890625,0.3040313720703125
1701290744599305200,6.49730517578125,-0.09405517578125,0.469482421875,0.332550048828125
1701290744609380400,6.50738037109375,-0.102783203125,0.479949951171875,0.37841796875
1701290744619455000,6.517455078125,-0.09771728515625,0.4934539794921875,0.4344482421875
1701290744629530000,6.527530029296875,-0.0924530029296875,0.4995880126953125,0.4942474365234375
1701290744639606300,6.537606201171875,-0.1159210205078125,0.5147857666015625,0.5556488037109375
1701290744649681200,6.54768115234375,-0.2160797119140625,0.5390472412109375,0.63006591796875
1701290744659756300,6.55775634765625,-0.342864990234375,0.562713623046875,0.730743408203125
1701290744669831200,6.5678310546875,-0.4507293701171875,0.57440185546875,0.8371734619140625
1701290744679907000,6.577906982421875,-0.5059814453125,0.5898590087890625,0.9518585205078125
1701290744689982200,6.587982177734375,-0.48492431640625,0.6285858154296875,1.0269317626953125
1701290744700057300,6.598057373046875,-0.4100189208984375,0.6804046630859375,0.997467041015625
1701290744710133000,6.608133056640625,-0.3084869384765625,0.74163818359375,0.8783111572265625
1701290744720208100,6.6182080078125,-0.1954193115234375,0.773406982421875,0.7125701904296875
1701290744730283300,6.628283203125,-0.0997161865234375,0.7577056884765625,0.53619384765625
1701290744740358100,6.638358154296875,-0.057891845703125,0.7409210205078125,0.4139556884765625
1701290744750434000,6.64843408203125,-0.0695037841796875,0.751129150390625,0.3545074462890625
1701290744760509200,6.65850927734375,-0.1076202392578125,0.8017425537109375,0.32684326171875
1701290744770584000,6.668583984375,-0.172027587890625,0.86993408203125,0.3296966552734375
1701290744780659200,6.6786591796875,-0.264892578125,0.916046142578125,0.356689453125
1701290744790735400,6.6887353515625,-0.3516998291015625,0.966644287109375,0.39215087890625
1701290744800810000,6.69881005859375,-0.3684539794921875,1.0844879150390625,0.495452880859375
1701290744810885000,6.708885009765625,-0.3981170654296875,1.2366943359375,0.6655120849609375
1701290744820961300,6.718961181640625,-0.52252197265625,1.4571990966796875,0.883758544921875
1701290744831036200,6.7290361328125,-0.5027923583984375,1.666961669921875,1.0457000732421875
1701290744841111300,6.739111328125,-0.22637939453125,1.698638916015625,1.0312042236328125
1701290744851186200,6.749186279296875,0.233428955078125,1.482086181640625,0.7621917724609375
1701290744861262000,6.759261962890625,0.4496612548828125,1.303741455078125,0.49005126953125
1701290744871337200,6.769337158203125,0.12255859375,1.5886688232421875,0.59112548828125
1701290744881412400,6.779412353515625,-1.46337890625,2.2447357177734375,0.8575897216796875
1701290744891487200,6.7894873046875,-1.4298858642578125,1.8820343017578125,1.2952880859375
1701290744901563100,6.799563232421875,0.7469940185546875,0.91400146484375,0.96368408203125
1701290744911638300,6.80963818359375,0.8713531494140625,0.597198486328125,0.5396881103515625
1701290744921713200,6.819713134765625,0.4039764404296875,0.4248199462890625,0.394439697265625
1701290744931789000,6.8297890625,0.279052734375,0.364593505859375,0.3060302734375
1701290744941864200,6.8398642578125,0.36114501953125,0.49188232421875,0.307159423828125
1701290744951939000,6.84993896484375,0.497650146484375,0.6971282958984375,0.2284698486328125
1701290744962014200,6.86001416015625,0.5487213134765625,0.934814453125,0.189727783203125
1701290744972090400,6.87009033203125,0.4760589599609375,1.210968017578125,0.2620849609375
1701290744982165000,6.8801650390625,0.325225830078125,1.41180419921875,0.3813629150390625
1701290744992240000,6.890240234375,0.016021728515625,1.34417724609375,0.599853515625
1701290745002316300,6.90031640625,-0.3529205322265625,1.00762939453125,0.8215179443359375
1701290745012391200,6.91039111328125,-0.319610595703125,0.8118896484375,0.866943359375
1701290745022466300,6.92046630859375,-0.10150146484375,0.7429046630859375,0.746063232421875
1701290745032541200,6.930541259765625,0.004913330078125,0.764007568359375,0.6259613037109375
1701290745042617000,6.9406171875,0.000946044921875,0.8228302001953125,0.521697998046875
1701290745052692200,6.950692138671875,-0.00970458984375,0.8391571044921875,0.445220947265625
1701290745062767400,6.960767333984375,-0.0218048095703125,0.8327789306640625,0.4097747802734375
1701290745072842200,6.97084228515625,-0.04339599609375,0.8256072998046875,0.40936279296875
1701290745082918100,6.980918212890625,-0.065673828125,0.8118438720703125,0.4322967529296875
1701290745092993300,6.9909931640625,-0.0893402099609375,0.796417236328125,0.4649200439453125
1701290745103068200,7.001068115234375,-0.1240692138671875,0.7867584228515625,0.4960479736328125
1701290745113144300,7.011144287109375,-0.1503753662109375,0.7713775634765625,0.521240234375
1701290745123219200,7.02121923828125,-0.15570068359375,0.751373291015625,0.5325927734375
1701290745133294300,7.03129443359375,-0.154632568359375,0.7281494140625,0.5339813232421875
1701290745143369200,7.041369140625,-0.1097564697265625,0.714141845703125,0.5311431884765625
1701290745153445000,7.051445068359375,-0.0209197998046875,0.7155914306640625,0.5259246826171875
1701290745163520300,7.061520263671875,0.012298583984375,0.706787109375,0.5249786376953125
1701290745173595100,7.07159521484375,-0.0091552734375,0.68792724609375,0.5283355712890625
1701290745183670300,7.081670166015625,-0.0135040283203125,0.675628662109375,0.52783203125
1701290745193746400,7.091746337890625,-0.0002593994140625,0.669647216796875,0.5255279541015625
1701290745203821000,7.101821044921875,-0.017791748046875,0.68145751953125,0.528289794921875
1701290745213896200,7.111896240234375,-0.095977783203125,0.6946563720703125,0.5364837646484375
1701290745223972400,7.121972412109375,-0.2235260009765625,0.7098541259765625,0.562652587890625
1701290745234047500,7.132047607421875,-0.308929443359375,0.715850830078125,0.5610504150390625
1701290745244122400,7.142122314453125,-0.2369232177734375,0.7137603759765625,0.452178955078125
1701290745254197200,7.152197265625,-0.0734100341796875,0.731170654296875,0.3038177490234375
1701290745264273400,7.1622734375,0.027069091796875,0.7615814208984375,0.205474853515625
1701290745274348300,7.172348388671875,0.0268707275390625,0.7906494140625,0.1872100830078125
1701290745284423400,7.18242333984375,-0.020721435546875,0.788665771484375,0.258026123046875
1701290745294498300,7.192498291015625,-0.091064453125,0.728607177734375,0.330841064453125
1701290745304574200,7.20257421875,-0.2041168212890625,0.667938232421875,0.3729248046875
1701290745314649300,7.2126494140625,-0.2418670654296875,0.72222900390625,0.410980224609375
1701290745324724200,7.22272412109375,-0.1011199951171875,0.8491973876953125,0.3828582763671875
1701290745334800100,7.232800048828125,0.0193328857421875,0.8987274169921875,0.33056640625
1701290745344875300,7.242875244140625,0.00341796875,0.8571319580078125,0.3225860595703125
1701290745354950100,7.2529501953125,-0.0442352294921875,0.76605224609375,0.3549041748046875
1701290745365025300,7.263025390625,-0.135955810546875,0.7128753662109375,0.4304962158203125
1701290745375101400,7.273101318359375,-0.151702880859375,0.7494354248046875,0.4769287109375
1701290745385176000,7.283176025390625,0.0331268310546875,0.8348388671875,0.4800262451171875
1701290745395251200,7.293251220703125,0.1012725830078125,0.9052886962890625,0.506439208984375
1701290745405326300,7.303326416015625,0.0533599853515625,0.9453125,0.59051513671875
1701290745415402500,7.313402587890625,-0.0033111572265625,0.9517059326171875,0.6711273193359375
1701290745425477400,7.323477294921875,-0.0570220947265625,0.9031524658203125,0.7451934814453125
1701290745435552300,7.33355224609375,0.0017852783203125,0.7928314208984375,0.7752227783203125
1701290745445628400,7.34362841796875,0.0321502685546875,0.67266845703125,0.7679595947265625
1701290745455703300,7.353703369140625,-0.0160980224609375,0.591156005859375,0.7695465087890625
1701290745465778400,7.3637783203125,-0.05865478515625,0.5811920166015625,0.785247802734375
1701290745475853300,7.373853271484375,-0.080474853515625,0.6886444091796875,0.825164794921875
1701290745485929200,7.38392919921875,-0.137359619140625,0.8639984130859375,0.9016571044921875
1701290745496004400,7.39400439453125,-0.257720947265625,1.01141357421875,0.9796905517578125
1701290745506079200,7.404079345703125,-0.283294677734375,1.098358154296875,1.04376220703125
1701290745516154400,7.414154296875,-0.1950225830078125,1.1421356201171875,1.0854034423828125
1701290745526230300,7.424230224609375,-0.205047607421875,1.1780548095703125,1.0755462646484375
1701290745536305200,7.43430517578125,-0.2910308837890625,1.25616455078125,0.969757080078125
1701290745546380300,7.44438037109375,-0.3050537109375,1.35400390625,0.8018798828125
1701290745556456400,7.45445654296875,-0.2483978271484375,1.41986083984375,0.6565093994140625
1701290745566531000,7.464531005859375,-0.1907806396484375,1.4296722412109375,0.551116943359375
1701290745576606200,7.474606201171875,-0.1410675048828125,1.3708038330078125,0.5162811279296875
1701290745586681300,7.484681396484375,-0.09124755859375,1.2156524658203125,0.5083465576171875
1701290745596757500,7.494757568359375,-0.032257080078125,1.00970458984375,0.473907470703125
1701290745606832400,7.504832275390625,0.016845703125,0.865386962890625,0.4197540283203125
1701290745616907300,7.5149072265625,-0.0403289794921875,0.82293701171875,0.367340087890625
1701290745626982100,7.524982177734375,-0.14154052734375,0.8542022705078125,0.3461761474609375
1701290745637058300,7.535058349609375,-0.2396392822265625,0.91839599609375,0.3950042724609375
1701290745647133400,7.545133544921875,-0.3367156982421875,0.9514617919921875,0.4987335205078125
1701290745657208300,7.555208251953125,-0.373046875,0.92327880859375,0.5878143310546875
1701290745667284200,7.5652841796875,-0.326385498046875,0.8602447509765625,0.591705322265625
1701290745677359400,7.575359375,-0.2540435791015625,0.8191070556640625,0.5315093994140625
1701290745687434200,7.585434326171875,-0.206268310546875,0.79803466796875,0.471527099609375
1701290745697509400,7.59550927734375,-0.1798248291015625,0.7845001220703125,0.4416961669921875
1701290745707585300,7.605585205078125,-0.1695404052734375,0.7606201171875,0.422698974609375
1701290745717660200,7.61566015625,-0.160797119140625,0.7291259765625,0.3905181884765625
1701290745727735300,7.6257353515625,-0.148162841796875,0.690673828125,0.3382110595703125
1701290745737810400,7.635810546875,-0.1347808837890625,0.652587890625,0.2638092041015625
1701290745747886000,7.645885986328125,-0.121307373046875,0.6332550048828125,0.19775390625
1701290745757961200,7.655961181640625,-0.1193695068359375,0.6305389404296875,0.1441497802734375
1701290745768036400,7.666036376953125,-0.1223907470703125,0.639617919921875,0.1064910888671875
1701290745778112500,7.676112548828125,-0.13555908203125,0.652069091796875,0.0881500244140625
1701290745788187400,7.6861875,-0.1478271484375,0.67242431640625,0.0918731689453125
1701290745798262300,7.69626220703125,-0.154205322265625,0.6926727294921875,0.1090087890625
1701290745808337200,7.706337158203125,-0.175689697265625,0.6898651123046875,0.14190673828125
1701290745818413300,7.716413330078125,-0.1878662109375,0.66668701171875,0.193817138671875
1701290745828488400,7.726488525390625,-0.1640625,0.6367950439453125,0.2419586181640625
1701290745838563300,7.736563232421875,-0.14166259765625,0.6074676513671875,0.27032470703125
1701290745848638200,7.74663818359375,-0.10662841796875,0.5907745361328125,0.2985076904296875
1701290745858714400,7.75671435546875,-0.0754852294921875,0.5962677001953125,0.3427734375
1701290745868789200,7.766789306640625,-0.0613861083984375,0.624053955078125,0.41748046875
1701290745878864400,7.776864501953125,-0.076141357421875,0.6644439697265625,0.4929656982421875
1701290745888940300,7.786940185546875,-0.0909881591796875,0.6939849853515625,0.55609130859375
1701290745899015200,7.79701513671875,-0.10675048828125,0.6942901611328125,0.6002197265625
1701290745909090300,7.80709033203125,-0.145599365234375,0.6643218994140625,0.6177978515625
1701290745919165400,7.81716552734375,-0.213958740234375,0.607635498046875,0.6207122802734375
1701290745929241000,7.827240966796875,-0.284149169921875,0.532958984375,0.6247100830078125
1701290745939316200,7.837316162109375,-0.311309814453125,0.4686431884765625,0.630950927734375
1701290745949391400,7.847391357421875,-0.29974365234375,0.436492919921875,0.6455078125
1701290745959466200,7.85746630859375,-0.240081787109375,0.4453887939453125,0.6689453125
1701290745969542100,7.867542236328125,-0.1622314453125,0.4895172119140625,0.687408447265625
1701290745979617300,7.8776171875,-0.0836639404296875,0.5589599609375,0.70361328125
1701290745989692200,7.887692138671875,-0.0144805908203125,0.6521453857421875,0.704620361328125
1701290745999768300,7.897768310546875,0.0195770263671875,0.762359619140625,0.6785125732421875
1701290746009843500,7.907843505859375,-0.0016632080078125,0.86749267578125,0.6112213134765625
1701290746019918000,7.91791796875,-0.0847930908203125,0.950836181640625,0.526458740234375
1701290746029993200,7.9279931640625,-0.2030792236328125,0.98046875,0.452880859375
1701290746040069400,7.9380693359375,-0.3088226318359375,0.9360198974609375,0.41082763671875
1701290746050144300,7.948144287109375,-0.3578948974609375,0.861602783203125,0.40313720703125
1701290746060219400,7.958219482421875,-0.3361358642578125,0.81842041015625,0.409515380859375
1701290746070294300,7.968294189453125,-0.301177978515625,0.81695556640625,0.40802001953125
1701290746080370200,7.9783701171875,-0.287933349609375,0.852691650390625,0.3955535888671875
1701290746090445300,7.9884453125,-0.2710723876953125,0.9626617431640625,0.4385833740234375
1701290746100520400,7.9985205078125,-0.3036651611328125,1.1469268798828125,0.5169219970703125
1701290746110595800,8.008595947265626,-0.396026611328125,1.371063232421875,0.555572509765625
1701290746120671000,8.0186708984375,-0.383056640625,1.563140869140625,0.61773681640625
1701290746130746000,8.02874609375,-0.2159423828125,1.740692138671875,0.7005157470703125
1701290746140821000,8.038821044921875,0.07666015625,1.8166351318359375,0.689483642578125
1701290746150897200,8.048897216796876,0.29931640625,1.6172943115234375,0.544677734375
1701290746160972000,8.058971923828125,0.3025665283203125,1.1552276611328125,0.3823699951171875
1701290746171047000,8.069046875,0.1552886962890625,0.8394622802734375,0.3465576171875
1701290746181122000,8.0791220703125,-0.0656280517578125,0.734283447265625,0.39874267578125
1701290746191198200,8.0891982421875,-0.0678558349609375,0.91021728515625,0.596588134765625
1701290746201273000,8.099273193359375,0.0187225341796875,1.344512939453125,0.84478759765625
1701290746211348000,8.109347900390626,-0.181976318359375,1.684814453125,1.008270263671875
1701290746221424000,8.119424072265625,-0.55072021484375,1.66571044921875,1.093475341796875
1701290746231499000,8.1294990234375,-0.3582763671875,1.126953125,0.9028167724609375
1701290746241574100,8.13957421875,0.0364837646484375,0.746368408203125,0.6661529541015625
1701290746251649000,8.14964892578125,0.1402130126953125,0.6000518798828125,0.4912109375
1701290746261725000,8.159724853515625,0.2464447021484375,0.5697479248046875,0.420440673828125
1701290746271800000,8.169800048828124,0.4596099853515625,0.653961181640625,0.449798583984375
1701290746281875200,8.179875244140625,0.5613555908203125,0.805572509765625,0.4559478759765625
1701290746291950800,8.189950927734374,0.5700225830078125,0.9544677734375,0.4460296630859375
1701290746302026000,8.20002587890625,0.57427978515625,1.021942138671875,0.4496002197265625
1701290746312101000,8.21010107421875,0.4483489990234375,0.999847412109375,0.4398040771484375
1701290746322176000,8.220176025390625,0.0673370361328125,0.9362030029296875,0.4872894287109375
1701290746332252000,8.230251953125,-0.2615966796875,0.8860015869140625,0.6284942626953125
1701290746342327000,8.2403271484375,-0.3064727783203125,0.86407470703125,0.700439453125
1701290746352402000,8.25040185546875,-0.163238525390625,0.872039794921875,0.651458740234375
1701290746362477000,8.26047705078125,-0.06243896484375,0.8846893310546875,0.5603485107421875
1701290746372553200,8.27055322265625,-0.038665771484375,0.8659515380859375,0.46978759765625
1701290746382627800,8.2806279296875,-0.0399932861328125,0.84051513671875,0.390777587890625
1701290746392703000,8.290702880859374,-0.0314788818359375,0.822021484375,0.32952880859375
1701290746402779100,8.300779052734375,-0.0202178955078125,0.8043975830078125,0.291259765625
1701290746412854000,8.31085400390625,-0.0164031982421875,0.789764404296875,0.2965545654296875
1701290746422929200,8.32092919921875,-0.0258026123046875,0.7763519287109375,0.34039306640625
1701290746433004000,8.331004150390624,-0.03485107421875,0.7637939453125,0.425323486328125
1701290746443080000,8.341079833984375,-0.0393829345703125,0.7546844482421875,0.5338287353515625
1701290746453155000,8.351155029296875,-0.051025390625,0.7257537841796875,0.6139373779296875
1701290746463230200,8.361230224609375,-0.058502197265625,0.6948699951171875,0.6615753173828125
1701290746473305900,8.371305908203125,-0.0459442138671875,0.671844482421875,0.6983642578125
1701290746483381000,8.381381103515626,-0.0045013427734375,0.65771484375,0.7187042236328125
1701290746493456100,8.3914560546875,0.00933837890625,0.64385986328125,0.719329833984375
1701290746503531000,8.401531005859376,-0.0600738525390625,0.6223297119140625,0.7253265380859375
1701290746513607000,8.41160693359375,-0.154205322265625,0.60516357421875,0.72088623046875
1701290746523682000,8.42168212890625,-0.206634521484375,0.579132080078125,0.6605072021484375
1701290746533757000,8.4317568359375,-0.1873626708984375,0.5571746826171875,0.5338897705078125
1701290746543832000,8.44183203125,-0.143310546875,0.577728271484375,0.40704345703125
1701290746553908200,8.451908203125,-0.1604461669921875,0.6511383056640625,0.322265625
1701290746563982800,8.46198291015625,-0.2555999755859375,0.7735443115234375,0.2626190185546875
1701290746574058000,8.47205810546875,-0.2937164306640625,0.9370269775390625,0.2352294921875
1701290746584134100,8.482134033203126,-0.219573974609375,1.0167999267578125,0.2065887451171875
1701290746594209000,8.492208984375,-0.11083984375,0.953125,0.16595458984375
1701290746604284200,8.5022841796875,-0.0582275390625,0.8505859375,0.1207275390625
1701290746614359000,8.512359130859375,-0.0442352294921875,0.8064117431640625,0.0811004638671875
1701290746624435000,8.52243505859375,0.070892333984375,0.8468017578125,0.1034393310546875
1701290746634510000,8.532510009765625,0.245086669921875,0.918182373046875,0.1840362548828125
1701290746644585200,8.542585205078124,0.328704833984375,0.9528350830078125,0.3031005859375
1701290746654660900,8.552660888671875,0.3179779052734375,0.9114532470703125,0.4037628173828125
1701290746664736000,8.562736083984374,0.24493408203125,0.781280517578125,0.476531982421875
1701290746674811100,8.57281103515625,0.067138671875,0.6504364013671875,0.5863037109375
1701290746684886000,8.582885986328124,-0.3475189208984375,0.5665130615234375,0.7698516845703125
1701290746694962000,8.5929619140625,-0.4617767333984375,0.6270599365234375,0.9119415283203125
1701290746705037000,8.603037109375,0.0759429931640625,0.831573486328125,0.81842041015625
1701290746715112000,8.61311181640625,0.2712860107421875,0.96343994140625,0.717437744140625
1701290746725187000,8.62318701171875,0.17315673828125,0.8990325927734375,0.6202850341796875
1701290746735263200,8.63326318359375,0.035858154296875,0.7156219482421875,0.5750885009765625
1701290746745337900,8.643337890625,-0.138214111328125,0.587310791015625,0.6246185302734375
1701290746755413000,8.6534130859375,-0.2686920166015625,0.581878662109375,0.6988372802734375
1701290746765489200,8.6634892578125,-0.2552947998046875,0.691680908203125,0.72979736328125
1701290746775564000,8.67356396484375,-0.102294921875,0.902679443359375,0.7592315673828125
1701290746785639200,8.68363916015625,-0.039154052734375,1.111785888671875,0.803558349609375
1701290746795714000,8.693714111328125,-0.1188812255859375,1.1900177001953125,0.835479736328125
1701290746805790000,8.7037900390625,-0.21575927734375,1.1284637451171875,0.88409423828125
1701290746815865000,8.713864990234375,-0.2993316650390625,1.024932861328125,0.9371795654296875
1701290746825940200,8.723940185546875,-0.35125732421875,0.9904632568359375,0.95025634765625
1701290746836015000,8.73401513671875,-0.2928924560546875,1.062652587890625,0.8981170654296875
1701290746846091000,8.744091064453125,-0.22601318359375,1.169647216796875,0.7774658203125
1701290746856166100,8.754166259765626,-0.1950531005859375,1.25439453125,0.6637115478515625
1701290746866241000,8.764240966796875,-0.1271820068359375,1.3113250732421875,0.602081298828125
1701290746876317000,8.77431689453125,-0.0918731689453125,1.3773193359375,0.5655975341796875
1701290746886392000,8.78439208984375,-0.1101837158203125,1.4478302001953125,0.543975830078125
1701290746896467000,8.794467041015626,-0.1462249755859375,1.473907470703125,0.530120849609375
1701290746906542000,8.8045419921875,-0.1605072021484375,1.36993408203125,0.526611328125
1701290746916618000,8.814617919921876,-0.1526031494140625,1.130462646484375,0.557830810546875
1701290746926692900,8.82469287109375,-0.1511993408203125,0.9287261962890625,0.58447265625
1701290746936768000,8.83476806640625,-0.1734161376953125,0.837127685546875,0.589263916015625
1701290746946843100,8.844843017578125,-0.21746826171875,0.8652801513671875,0.577392578125
1701290746956919000,8.8549189453125,-0.24896240234375,0.9506683349609375,0.57000732421875
1701290746966994000,8.864993896484375,-0.2613067626953125,1.0271453857421875,0.58135986328125
1701290746977069000,8.875069091796876,-0.2873992919921875,1.0507659912109375,0.6051788330078125
1701290746987145000,8.88514501953125,-0.2923736572265625,0.9892120361328125,0.6082916259765625
1701290746997220000,8.89522021484375,-0.2443389892578125,0.8845367431640625,0.5639495849609375
1701290747007295200,8.905295166015625,-0.183807373046875,0.783355712890625,0.495330810546875
1701290747017370000,8.9153701171875,-0.1439971923828125,0.7066497802734375,0.4351959228515625
1701290747027446000,8.925446044921875,-0.1441650390625,0.6644439697265625,0.3837738037109375
1701290747037521200,8.935521240234374,-0.1639556884765625,0.6543121337890625,0.33001708984375
1701290747047596000,8.945595947265625,-0.18243408203125,0.6644287109375,0.2713775634765625
1701290747057671200,8.955671142578124,-0.192108154296875,0.6650848388671875,0.2260589599609375
1701290747067747000,8.9657470703125,-0.1852569580078125,0.6494140625,0.1966705322265625
1701290747077822000,8.975822021484374,-0.16656494140625,0.612335205078125,0.170562744140625
1701290747087897000,8.98589697265625,-0.14349365234375,0.5669403076171875,0.141571044921875
1701290747097973000,8.995972900390624,-0.1324462890625,0.5378875732421875,0.1226043701171875
1701290747108048000,9.0060478515625,-0.1362762451171875,0.5321502685546875,0.1205291748046875
1701290747118123300,9.016123291015624,-0.1427459716796875,0.545379638671875,0.1353302001953125
1701290747128198400,9.026198486328125,-0.1441802978515625,0.5735015869140625,0.16705322265625
1701290747138274300,9.0362744140625,-0.13470458984375,0.60821533203125,0.2087249755859375
1701290747148349200,9.04634912109375,-0.12982177734375,0.655303955078125,0.257354736328125
1701290747158424300,9.05642431640625,-0.129058837890625,0.7050628662109375,0.3147125244140625
1701290747168499200,9.066499267578125,-0.1377716064453125,0.7364959716796875,0.3766326904296875
1701290747178575400,9.076575439453125,-0.160919189453125,0.7458343505859375,0.43963623046875
1701290747188650500,9.086650390625,-0.18975830078125,0.7312774658203125,0.491668701171875
1701290747198725000,9.09672509765625,-0.2066497802734375,0.7050323486328125,0.5263671875
1701290747208801300,9.10680126953125,-0.188385009765625,0.684112548828125,0.5621795654296875
1701290747218876400,9.11687646484375,-0.1511077880859375,0.6621246337890625,0.6073455810546875
1701290747228951300,9.126951416015626,-0.1265106201171875,0.6302642822265625,0.654571533203125
1701290747239026400,9.1370263671875,-0.1182708740234375,0.59783935546875,0.685455322265625
1701290747249102300,9.147102294921876,-0.12060546875,0.5743408203125,0.7031707763671875
1701290747259177200,9.15717724609375,-0.0943145751953125,0.5525054931640625,0.6986083984375
1701290747269252400,9.16725244140625,-0.0469970703125,0.533721923828125,0.6724090576171875
1701290747279327500,9.177327392578125,-0.0215301513671875,0.5371856689453125,0.6423492431640625
1701290747289403100,9.187403076171876,-0.02020263671875,0.5578155517578125,0.614044189453125
1701290747299478300,9.197478271484375,-0.04168701171875,0.58197021484375,0.578460693359375
1701290747309553400,9.207553466796876,-0.0796661376953125,0.619232177734375,0.5475006103515625
1701290747319629300,9.21762939453125,-0.14813232421875,0.652130126953125,0.5353546142578125
1701290747329704200,9.2277041015625,-0.22760009765625,0.6630859375,0.5356597900390625
1701290747339779300,9.237779296875,-0.2842864990234375,0.6412353515625,0.5518951416015625
1701290747349854200,9.247854248046876,-0.300750732421875,0.613128662109375,0.58880615234375
1701290747359930400,9.257930419921875,-0.287811279296875,0.6180267333984375,0.6208343505859375
1701290747370005200,9.268005126953126,-0.2731781005859375,0.6587677001953125,0.6302490234375
1701290747380080000,9.278080078125,-0.261871337890625,0.7131195068359375,0.608642578125
1701290747390155300,9.2881552734375,-0.2655029296875,0.758514404296875,0.5624847412109375
1701290747400231400,9.2982314453125,-0.2789459228515625,0.7957305908203125,0.5113067626953125
1701290747410306300,9.308306396484374,-0.281280517578125,0.8239898681640625,0.4644775390625
1701290747420381200,9.318381103515625,-0.2815399169921875,0.84832763671875,0.4340057373046875
1701290747430457300,9.328457275390624,-0.2804718017578125,0.8791351318359375,0.435577392578125
1701290747440532200,9.3385322265625,-0.2709503173828125,0.9133758544921875,0.4635162353515625
1701290747450607400,9.348607421875,-0.2658233642578125,0.96136474609375,0.4983978271484375
1701290747460682500,9.3586826171875,-0.2805633544921875,1.0160369873046875,0.512908935546875
1701290747470758100,9.368758056640624,-0.2940521240234375,1.0620880126953125,0.4888763427734375
1701290747480833300,9.378833251953125,-0.326171875,1.091033935546875,0.43792724609375
1701290747490908400,9.388908447265624,-0.344451904296875,1.13641357421875,0.3917388916015625
1701290747500983300,9.3989833984375,-0.3223114013671875,1.182220458984375,0.388214111328125
1701290747511059200,9.40905908203125,-0.3011932373046875,1.21917724609375,0.4697418212890625
1701290747521134300,9.41913427734375,-0.2507476806640625,1.280242919921875,0.6685333251953125
1701290747531209200,9.429209228515624,-0.1951446533203125,1.340972900390625,0.939544677734375
1701290747541284400,9.439284423828125,-0.0818939208984375,1.29534912109375,1.1039581298828125
1701290747551360300,9.4493603515625,0.15704345703125,1.0247802734375,0.9695587158203125
1701290747561435100,9.45943505859375,0.375762939453125,0.73974609375,0.716766357421875
1701290747571510300,9.46951025390625,0.3867950439453125,0.6729583740234375,0.5251922607421875
1701290747581586400,9.47958642578125,0.17376708984375,0.8127593994140625,0.4434967041015625
1701290747591661300,9.489661376953125,-0.101287841796875,1.221527099609375,0.6134490966796875
1701290747601736200,9.499736083984375,-0.363616943359375,1.56597900390625,0.9048614501953125
1701290747611811300,9.509811279296875,-0.5418853759765625,1.5892333984375,1.0887908935546875
1701290747621887200,9.51988720703125,-0.21820068359375,1.274871826171875,1.01556396484375
1701290747631962400,9.52996240234375,0.1219024658203125,0.9222564697265625,0.813995361328125
1701290747642037500,9.54003759765625,0.1580047607421875,0.765167236328125,0.65008544921875
1701290747652113200,9.550113037109375,0.1920318603515625,0.7355499267578125,0.4897613525390625
1701290747662188300,9.560188232421876,0.302581787109375,0.826416015625,0.4010467529296875
1701290747672263400,9.570263427734375,0.4084320068359375,0.939239501953125,0.3264617919921875
1701290747682338300,9.58033837890625,0.4788055419921875,1.0030975341796875,0.2532196044921875
1701290747692414200,9.590414306640625,0.552886962890625,1.04833984375,0.2255859375
1701290747702489300,9.6004892578125,0.6240692138671875,1.071685791015625,0.2270660400390625
1701290747712564200,9.610564208984375,0.62884521484375,1.0644073486328125,0.2426300048828125
1701290747722639400,9.620639404296876,0.494171142578125,1.0495758056640625,0.3058319091796875
1701290747732715300,9.63071533203125,0.2809600830078125,1.0247955322265625,0.4200286865234375
1701290747742790100,9.6407900390625,-0.0093536376953125,0.9913330078125,0.552734375
1701290747752865300,9.650865234375,-0.589263916015625,0.901519775390625,0.742462158203125
1701290747762940400,9.6609404296875,-0.8329620361328125,0.78631591796875,0.8075103759765625
1701290747773016300,9.671016357421875,-0.4074554443359375,0.7093048095703125,0.6295166015625
1701290747783091200,9.68109130859375,-0.03564453125,0.73272705078125,0.4978790283203125
1701290747793166300,9.691166259765625,0.0894622802734375,0.8028411865234375,0.3978729248046875
1701290747803242200,9.7012421875,0.1132965087890625,0.8656158447265625,0.3144989013671875
1701290747813317400,9.7113173828125,0.0950927734375,0.8975067138671875,0.2905120849609375
1701290747823392500,9.721392578125,0.1001434326171875,0.90203857421875,0.3150787353515625
1701290747833467100,9.731467041015625,0.1288604736328125,0.894073486328125,0.353271484375
1701290747843543300,9.741543212890624,0.140594482421875,0.86505126953125,0.385955810546875
1701290747853618400,9.751618408203125,0.13140869140625,0.8396453857421875,0.4317626953125
1701290747863693300,9.761693359375,0.105560302734375,0.81976318359375,0.477294921875
1701290747873768400,9.7717685546875,0.058990478515625,0.7996063232421875,0.5219573974609375
1701290747883844400,9.78184423828125,-0.0106048583984375,0.77191162109375,0.56787109375
1701290747893919200,9.791919189453125,-0.0801849365234375,0.7373809814453125,0.620697021484375
1701290747903994400,9.801994384765624,-0.117095947265625,0.6886749267578125,0.637786865234375
1701290747914070300,9.8120703125,-0.117645263671875,0.6434326171875,0.619354248046875
1701290747924145200,9.822145263671874,-0.110076904296875,0.607574462890625,0.5766754150390625
1701290747934220300,9.83222021484375,-0.11907958984375,0.5938568115234375,0.5482025146484375
1701290747944295400,9.84229541015625,-0.1198272705078125,0.61846923828125,0.5405120849609375
1701290747954371300,9.852371337890625,-0.113800048828125,0.6533355712890625,0.5238494873046875
1701290747964446200,9.8624462890625,-0.0977020263671875,0.6558837890625,0.47296142578125
1701290747974521300,9.872521240234375,-0.0650177001953125,0.641326904296875,0.407928466796875
1701290747984596200,9.88259619140625,-0.0702972412109375,0.6379547119140625,0.3785247802734375
1701290747994672400,9.89267236328125,-0.130706787109375,0.680999755859375,0.430084228515625
1701290748004747300,9.902747314453125,-0.122802734375,0.7963714599609375,0.5364837646484375
1701290748014822100,9.912822265625,0.0435028076171875,0.8914337158203125,0.5211944580078125
1701290748024898300,9.922898193359375,0.165252685546875,0.889190673828125,0.41473388671875
1701290748034973400,9.932973388671876,0.1566009521484375,0.8362274169921875,0.350341796875
1701290748045048300,9.94304833984375,0.1375885009765625,0.7734222412109375,0.316802978515625
1701290748055123500,9.95312353515625,0.0373687744140625,0.7003936767578125,0.3015289306640625
1701290748065199400,9.963199462890625,-0.1522216796875,0.66033935546875,0.344818115234375
1701290748075274200,9.973274169921876,-0.183502197265625,0.693572998046875,0.3803863525390625
1701290748085349400,9.983349365234375,0.03802490234375,0.7589874267578125,0.3434295654296875
1701290748095424500,9.993424560546876,0.2236785888671875,0.7999114990234375,0.3065948486328125
1701290748105500200,10.003500244140625,0.230804443359375,0.8059539794921875,0.3680419921875
1701290748115575300,10.0135751953125,0.2014007568359375,0.7872772216796875,0.503692626953125
1701290748125650400,10.023650390625,0.128570556640625,0.768951416015625,0.6361083984375
1701290748135726300,10.033726318359374,-0.0029296875,0.7515411376953125,0.7553253173828125
1701290748145801200,10.04380126953125,-0.0546417236328125,0.7294921875,0.820343017578125
1701290748155876400,10.05387646484375,-0.005615234375,0.7135467529296875,0.8332977294921875
1701290748165951500,10.063951416015625,-0.0295257568359375,0.700042724609375,0.8376922607421875
1701290748176027600,10.074027587890624,-0.0608062744140625,0.686370849609375,0.831024169921875
1701290748186102300,10.084102294921875,-0.08575439453125,0.7149658203125,0.744110107421875
1701290748196177400,10.094177490234374,-0.1151275634765625,0.8166046142578125,0.59881591796875
1701290748206252300,10.104252197265625,-0.1417999267578125,0.87396240234375,0.5099945068359375
1701290748216328400,10.114328369140624,-0.1248931884765625,0.8529510498046875,0.485870361328125
1701290748226403600,10.124403564453125,-0.0231475830078125,0.8011016845703125,0.508941650390625
1701290748236478200,10.134478271484374,-0.0670928955078125,0.79315185546875,0.5977783203125
1701290748246553300,10.14455322265625,-0.13507080078125,0.8007965087890625,0.7293243408203125
1701290748256629500,10.15462939453125,-0.19671630859375,0.8348846435546875,0.87847900390625
1701290748266704400,10.164704345703125,-0.1384124755859375,0.9053192138671875,0.9643707275390625
1701290748276779500,10.174779541015624,-0.09185791015625,0.971343994140625,0.9781646728515625
1701290748286855400,10.18485546875,-0.132965087890625,1.0605926513671875,0.9361724853515625
1701290748296930300,10.194930419921874,-0.114349365234375,1.171356201171875,0.8372955322265625
1701290748307005400,10.20500537109375,-0.091094970703125,1.306304931640625,0.7388153076171875
1701290748317080600,10.21508056640625,-0.11297607421875,1.479949951171875,0.693878173828125
1701290748327156200,10.22515625,-0.145660400390625,1.7085418701171875,0.6713714599609375
1701290748337231400,10.2352314453125,-0.1571044921875,1.908477783203125,0.646240234375
1701290748347306500,10.245306396484375,-0.190277099609375,1.909942626953125,0.5694732666015625
1701290748357381400,10.25538134765625,-0.2258453369140625,1.57843017578125,0.497772216796875
1701290748367457300,10.265457275390625,-0.2240753173828125,1.185699462890625,0.516571044921875
1701290748377532400,10.275532470703125,-0.2076416015625,0.987579345703125,0.5609588623046875
1701290748387607300,10.285607177734375,-0.18817138671875,0.91729736328125,0.5667572021484375
1701290748397683500,10.295683349609375,-0.168243408203125,0.9150543212890625,0.5381622314453125
1701290748407758600,10.305758544921876,-0.18658447265625,0.98907470703125,0.502960205078125
1701290748417833200,10.315833251953125,-0.2393035888671875,1.0777130126953125,0.51904296875
1701290748427908400,10.325908447265626,-0.2842254638671875,1.0903472900390625,0.5982818603515625
1701290748437984500,10.335984619140625,-0.2878570556640625,1.006866455078125,0.687713623046875
1701290748448059400,10.346059326171876,-0.2504730224609375,0.892425537109375,0.724517822265625
1701290748458134500,10.356134521484375,-0.18243408203125,0.7907867431640625,0.7040557861328125
1701290748468209400,10.36620947265625,-0.135986328125,0.70916748046875,0.6549530029296875
1701290748478285300,10.376285400390625,-0.1212310791015625,0.6562957763671875,0.58380126953125
1701290748488360400,10.3863603515625,-0.117279052734375,0.6293792724609375,0.50213623046875
1701290748498435600,10.396435546875,-0.1035614013671875,0.610931396484375,0.416839599609375
1701290748508511200,10.40651123046875,-0.088714599609375,0.6037445068359375,0.331329345703125
1701290748518586400,10.41658642578125,-0.0785064697265625,0.6018218994140625,0.25933837890625
1701290748528661500,10.42666162109375,-0.0738067626953125,0.58740234375,0.1951751708984375
1701290748538736400,10.436736328125,-0.062255859375,0.5585479736328125,0.1458892822265625
1701290748548812300,10.446812255859374,-0.04364013671875,0.5202484130859375,0.1033477783203125
1701290748558887400,10.456887451171875,-0.025726318359375,0.4901580810546875,0.065765380859375
1701290748568962300,10.46696240234375,-0.01922607421875,0.4680328369140625,0.0387725830078125
1701290748579037400,10.477037353515625,-0.0345916748046875,0.4568023681640625,0.024200439453125
1701290748589113600,10.487113525390624,-0.0449371337890625,0.4641571044921875,0.0272674560546875
1701290748599188200,10.497188232421875,-0.0480499267578125,0.49395751953125,0.0411529541015625
1701290748609263400,10.507263427734374,-0.052978515625,0.5369720458984375,0.0530242919921875
1701290748619339500,10.517339599609375,-0.0501556396484375,0.58251953125,0.0683746337890625
1701290748629414400,10.527414306640624,-0.0580596923828125,0.6137542724609375,0.10089111328125
1701290748639489500,10.537489501953125,-0.081817626953125,0.6313629150390625,0.16241455078125
1701290748649564400,10.547564453125,-0.097412109375,0.6329345703125,0.2291107177734375
1701290748659640300,10.557640380859375,-0.1031036376953125,0.6249237060546875,0.287200927734375
1701290748669715500,10.567715576171874,-0.0924530029296875,0.6184234619140625,0.338104248046875
1701290748679790600,10.57779052734375,-0.06561279296875,0.603363037109375,0.397705078125
1701290748689865500,10.587865478515624,-0.0283050537109375,0.594757080078125,0.468231201171875
1701290748699941400,10.59794140625,0.02142333984375,0.600738525390625,0.557647705078125
1701290748710016500,10.6080166015625,0.0665740966796875,0.615325927734375,0.6415557861328125
1701290748720091400,10.61809130859375,0.0648193359375,0.6604156494140625,0.69610595703125
1701290748730166500,10.62816650390625,-0.0438385009765625,0.698883056640625,0.751251220703125
1701290748740242400,10.638242431640625,-0.183746337890625,0.69049072265625,0.8846282958984375
1701290748750317300,10.6483173828125,-0.2505950927734375,0.617431640625,1.076171875
1701290748760392400,10.658392333984375,-0.2327728271484375,0.5211334228515625,1.1700286865234375
1701290748770468400,10.66846826171875,-0.1904754638671875,0.4331207275390625,1.16693115234375
1701290748780543200,10.678543212890625,-0.136260986328125,0.38250732421875,1.118896484375
1701290748790618400,10.688618408203125,-0.0941619873046875,0.4248046875,1.034271240234375
1701290748800693500,10.698693603515625,-0.0756988525390625,0.5695953369140625,0.9128875732421875
1701290748810769400,10.708769287109375,-0.1046905517578125,0.73260498046875,0.7718963623046875
1701290748820844300,10.71884423828125,-0.1949615478515625,0.8725128173828125,0.6693115234375
1701290748830919400,10.72891943359375,-0.3184814453125,0.9871826171875,0.606292724609375
1701290748840995300,10.738995361328126,-0.430877685546875,1.05078125,0.552337646484375
1701290748851070500,10.749070556640625,-0.5168304443359375,1.0447235107421875,0.5148468017578125
1701290748861145600,10.7591455078125,-0.529388427734375,0.983306884765625,0.54241943359375
1701290748871220200,10.76922021484375,-0.485137939453125,0.9647216796875,0.6025238037109375
1701290748881296400,10.77929638671875,-0.3896026611328125,1.071502685546875,0.6784210205078125
1701290748891371500,10.78937158203125,-0.3488311767578125,1.1981048583984375,0.7803497314453125
1701290748901446400,10.7994462890625,-0.43621826171875,1.30584716796875,0.92254638671875
1701290748911521500,10.809521484375,-0.5109405517578125,1.354827880859375,1.1053924560546875
1701290748921597400,10.819597412109376,-0.390106201171875,1.356170654296875,1.2580718994140625
1701290748931672300,10.82967236328125,-0.03546142578125,1.269989013671875,1.2205657958984375
1701290748941747500,10.83974755859375,0.2620697021484375,1.0398101806640625,0.9263153076171875
1701290748951822600,10.849822509765625,0.3914947509765625,0.846649169921875,0.57000732421875
1701290748961898200,10.859898193359374,0.3624114990234375,0.787994384765625,0.3301849365234375
1701290748971973400,10.869973388671875,0.2908477783203125,0.8453369140625,0.188629150390625
1701290748982048500,10.880048583984374,0.161407470703125,1.15716552734375,0.2252655029296875
1701290748992124400,10.89012451171875,-0.4972076416015625,1.6463470458984375,0.28173828125
1701290749002199300,10.90019921875,-1.1846771240234375,2.029541015625,0.293609619140625
1701290749012274400,10.9102744140625,-0.528411865234375,1.88275146484375,0.455535888671875
1701290749022349300,10.920349365234374,0.276519775390625,1.26531982421875,0.45367431640625
1701290749032425500,10.930425537109375,0.58441162109375,0.8237457275390625,0.4563751220703125
1701290749042500600,10.94050048828125,0.63214111328125,0.63641357421875,0.4641571044921875
1701290749052575200,10.9505751953125,0.5912017822265625,0.5084228515625,0.4903564453125
1701290749062651400,10.9606513671875,0.546630859375,0.4878387451171875,0.5267791748046875
1701290749072726500,10.9707265625,0.5278778076171875,0.663299560546875,0.5664520263671875
1701290749082801400,10.980801513671874,0.5220947265625,0.922332763671875,0.57318115234375
1701290749092876500,10.99087646484375,0.460235595703125,1.086669921875,0.5394134521484375
1701290749102952400,11.000952392578125,0.3253936767578125,1.1219635009765625,0.4909515380859375
1701290749113027600,11.011027587890625,0.12457275390625,1.059051513671875,0.4722442626953125
1701290749123102700,11.021102783203125,-0.1839141845703125,0.97589111328125,0.4879913330078125
1701290749133177900,11.031177734375,-0.4446868896484375,0.9344635009765625,0.45928955078125
1701290749143253500,11.04125341796875,-0.392486572265625,0.9376220703125,0.376556396484375
1701290749153328600,11.05132861328125,-0.187042236328125,0.9544219970703125,0.3120880126953125
1701290749163403800,11.06140380859375,-0.05657958984375,0.954559326171875,0.263580322265625
1701290749173479700,11.071479736328126,-0.0062103271484375,0.9378509521484375,0.2517242431640625
1701290749183554600,11.081554443359375,0.021575927734375,0.9216461181640625,0.2804107666015625
1701290749193629700,11.091629638671876,0.065673828125,0.8943634033203125,0.3322601318359375
1701290749203704600,11.10170458984375,0.114959716796875,0.8505706787109375,0.395416259765625
1701290749213780700,11.11178076171875,0.1285400390625,0.797882080078125,0.4589996337890625
1701290749223855600,11.121855712890625,0.12310791015625,0.76812744140625,0.51263427734375
1701290749233930500,11.131930419921876,0.1140594482421875,0.75250244140625,0.551971435546875
1701290749244005600,11.142005615234375,0.1007232666015625,0.735504150390625,0.584228515625
1701290749254081800,11.152081787109376,0.073455810546875,0.716064453125,0.6131439208984375
1701290749264156700,11.16215673828125,0.0415191650390625,0.701385498046875,0.63134765625
1701290749274231600,11.1722314453125,0.0214080810546875,0.68048095703125,0.629669189453125
1701290749284306700,11.182306640625,-0.00537109375,0.65582275390625,0.6103363037109375
1701290749294382600,11.192382568359376,-0.0500030517578125,0.6435699462890625,0.5643768310546875
1701290749304457700,11.202457763671875,-0.0854034423828125,0.6712493896484375,0.5041656494140625
1701290749314532900,11.212532958984376,-0.062774658203125,0.728607177734375,0.4496917724609375
1701290749324608500,11.2226083984375,-0.0135650634765625,0.7670745849609375,0.4187774658203125
1701290749334683600,11.23268359375,-0.0021209716796875,0.790557861328125,0.418426513671875
1701290749344758800,11.2427587890625,-0.053131103515625,0.8050994873046875,0.4230499267578125
1701290749354833700,11.252833740234376,-0.14215087890625,0.8167724609375,0.4162445068359375
1701290749364909600,11.26290966796875,-0.218414306640625,0.81707763671875,0.392181396484375
1701290749374984700,11.272984619140624,-0.195892333984375,0.785430908203125,0.3386383056640625
1701290749385059600,11.2830595703125,-0.0701141357421875,0.7474365234375,0.282257080078125
1701290749395134700,11.293134765625,0.0381011962890625,0.7293701171875,0.2746429443359375
1701290749405210600,11.303210693359375,0.08917236328125,0.7427520751953125,0.3381805419921875
1701290749415285500,11.313285400390624,0.099639892578125,0.7670440673828125,0.4288482666015625
1701290749425360600,11.323360595703125,0.0778961181640625,0.7407989501953125,0.47100830078125
1701290749435436800,11.333436767578124,-0.0054779052734375,0.65533447265625,0.4801483154296875
1701290749445511700,11.34351171875,-0.19134521484375,0.5702972412109375,0.4755706787109375
1701290749455586600,11.353586669921874,-0.1588134765625,0.592498779296875,0.42242431640625
1701290749465661700,11.36366162109375,0.108856201171875,0.726837158203125,0.3574371337890625
1701290749475737600,11.373737548828124,0.212554931640625,0.87127685546875,0.3609771728515625
1701290749485812700,11.383812744140625,0.153106689453125,0.9208831787109375,0.3963775634765625
1701290749495888000,11.393887939453125,0.0675811767578125,0.8448486328125,0.4274749755859375
1701290749505962500,11.40396240234375,-0.0357513427734375,0.72808837890625,0.4891357421875
1701290749516038700,11.41403857421875,-0.167388916015625,0.6502227783203125,0.5439453125
1701290749526113800,11.42411376953125,-0.187896728515625,0.655181884765625,0.5735931396484375
1701290749536188700,11.434188720703125,-0.1049346923828125,0.7146148681640625,0.6026763916015625
1701290749546264600,11.4442646484375,-0.0629425048828125,0.7718658447265625,0.6466522216796875
1701290749556339700,11.454339599609375,-0.170745849609375,0.7988739013671875,0.7196197509765625
1701290749566414600,11.46441455078125,-0.196685791015625,0.8032684326171875,0.770965576171875
1701290749576489700,11.47448974609375,-0.1036834716796875,0.8674468994140625,0.7910919189453125
1701290749586565600,11.484565673828126,-0.1033782958984375,1.0047760009765625,0.81170654296875
1701290749596640500,11.494640625,-0.1738739013671875,1.082672119140625,0.8108062744140625
1701290749606715600,11.504715576171876,-0.2358245849609375,1.088226318359375,0.8134918212890625
1701290749616790800,11.514790771484375,-0.2447509765625,1.073486328125,0.7838592529296875
1701290749626866700,11.52486669921875,-0.1374969482421875,1.0621185302734375,0.7111663818359375
1701290749636941600,11.534941650390625,-0.0922393798828125,1.0769195556640625,0.6316680908203125
1701290749647016700,11.5450166015625,-0.1067962646484375,1.1357421875,0.576019287109375
1701290749657092600,11.555092529296875,-0.072845458984375,1.2573699951171875,0.5810394287109375
1701290749667167700,11.565167724609376,-0.0766143798828125,1.4576416015625,0.640838623046875
1701290749677243000,11.575242919921875,-0.093170166015625,1.6812896728515625,0.7217864990234375
1701290749687317500,11.5853173828125,-0.082305908203125,1.809661865234375,0.7526397705078125
1701290749697393700,11.5953935546875,-0.067657470703125,1.690704345703125,0.7201385498046875
1701290749707468800,11.60546875,-0.067169189453125,1.3463287353515625,0.665283203125
1701290749717543700,11.615543701171875,-0.1236724853515625,1.0928497314453125,0.63494873046875
1701290749727618800,11.625618896484376,-0.1905059814453125,1.006378173828125,0.6216888427734375
1701290749737694700,11.63569482421875,-0.195648193359375,0.9896087646484375,0.59832763671875
1701290749747769600,11.64576953125,-0.1731109619140625,0.9984893798828125,0.556732177734375
1701290749757844700,11.6558447265625,-0.150848388671875,0.994232177734375,0.51751708984375
1701290749767920600,11.665920654296874,-0.1283111572265625,0.9613800048828125,0.5041656494140625
1701290749777995500,11.67599560546875,-0.1245269775390625,0.9136810302734375,0.5052490234375
1701290749788070700,11.686070556640624,-0.1367034912109375,0.863189697265625,0.5225982666015625
1701290749798145800,11.696145751953125,-0.125,0.820465087890625,0.537506103515625
1701290749808221700,11.7062216796875,-0.0962371826171875,0.7832489013671875,0.539093017578125
1701290749818296600,11.716296630859375,-0.0820465087890625,0.7384185791015625,0.523101806640625
1701290749828371700,11.726371826171874,-0.0852508544921875,0.6902313232421875,0.489349365234375
1701290749838446600,11.736446533203125,-0.099212646484375,0.65313720703125,0.43731689453125
1701290749848522800,11.746522705078124,-0.1131439208984375,0.6276397705078125,0.3757781982421875
1701290749858597600,11.75659765625,-0.108489990234375,0.6055145263671875,0.3153076171875
1701290749868672500,11.766672607421874,-0.085296630859375,0.5879974365234375,0.266021728515625
1701290749878748700,11.776748779296875,-0.057220458984375,0.5659027099609375,0.217529296875
1701290749888823800,11.78682373046875,-0.0373382568359375,0.547882080078125,0.1790771484375
1701290749898898700,11.796898681640625,-0.032196044921875,0.533416748046875,0.1508941650390625
1701290749908973600,11.8069736328125,-0.0362091064453125,0.5386505126953125,0.138519287109375
1701290749919049700,11.8170498046875,-0.0552825927734375,0.56268310546875,0.1330718994140625
1701290749929124600,11.82712451171875,-0.082244873046875,0.5953216552734375,0.148284912109375
1701290749939199700,11.83719970703125,-0.0943145751953125,0.626312255859375,0.1915283203125
1701290749949275000,11.84727490234375,-0.07403564453125,0.6473846435546875,0.2373504638671875
1701290749959350500,11.8573505859375,-0.0374908447265625,0.6577301025390625,0.2656097412109375
1701290749969425700,11.86742578125,-0.0086822509765625,0.6679840087890625,0.2697906494140625
1701290749979500800,11.877500732421876,-0.000091552734375,0.6834259033203125,0.2679901123046875
1701290749989575700,11.88757568359375,-0.010528564453125,0.693206787109375,0.2841644287109375
1701290749999651600,11.897651611328126,-0.03179931640625,0.6884307861328125,0.312530517578125
1701290750009726700,11.907726806640625,-0.0428009033203125,0.675537109375,0.346435546875
1701290750019801600,11.917801513671876,-0.029296875,0.6612396240234375,0.39691162109375
1701290750029877800,11.927877685546875,-0.00006103515625,0.645477294921875,0.4641571044921875
1701290750039952600,11.93795263671875,0.02203369140625,0.63128662109375,0.5305938720703125
1701290750050027500,11.948027587890625,0.02716064453125,0.6200408935546875,0.585845947265625
1701290750060102700,11.9581025390625,0.0146484375,0.5863037109375,0.625732421875
1701290750070178800,11.9681787109375,0.0060272216796875,0.523284912109375,0.672943115234375
1701290750080253700,11.978253662109376,-0.007354736328125,0.432952880859375,0.7412567138671875
1701290750090328600,11.98832861328125,-0.019927978515625,0.353302001953125,0.7926483154296875
1701290750100404700,11.99840478515625,-0.0513916015625,0.3274993896484375,0.830474853515625
1701290750110479600,12.008479736328125,-0.0987091064453125,0.366180419921875,0.8621673583984375
1701290750120554000,12.018553955078126,-0.1392669677734375,0.4595947265625,0.873870849609375
1701290750130629000,12.028629150390625,-0.137786865234375,0.5837249755859375,0.8650360107421875
1701290750140705000,12.038705078125,-0.1430206298828125,0.6967010498046875,0.8303070068359375
1701290750150780000,12.04877978515625,-0.176483154296875,0.774688720703125,0.7678985595703125
1701290750160855000,12.05885498046875,-0.2417755126953125,0.8228759765625,0.6834716796875
1701290750170930200,12.06893017578125,-0.34765625,0.8352203369140625,0.624755859375
1701290750181006000,12.079006103515624,-0.4278411865234375,0.79296875,0.631591796875
1701290750191081000,12.0890810546875,-0.435333251953125,0.736083984375,0.662841796875
1701290750201156000,12.099156005859374,-0.4193267822265625,0.728973388671875,0.673248291015625
1701290750211231000,12.10923095703125,-0.4512939453125,0.7454071044921875,0.657470703125
1701290750221307100,12.11930712890625,-0.4582977294921875,0.8448486328125,0.6685028076171875
1701290750231382000,12.129382080078125,-0.3850555419921875,1.0272064208984375,0.744903564453125
1701290750241457000,12.139456787109374,-0.3276214599609375,1.2332916259765625,0.8619537353515625
1701290750251533000,12.149532958984375,-0.2866973876953125,1.4369354248046875,0.9578704833984375
1701290750261608200,12.159608154296874,-0.1927642822265625,1.5579833984375,0.935882568359375
1701290750271683000,12.16968310546875,0.112548828125,1.4451904296875,0.72320556640625
1701290750281758000,12.179758056640624,0.31793212890625,1.1715545654296875,0.4546051025390625
1701290750291834000,12.189834228515625,0.29888916015625,0.939971923828125,0.3177032470703125
1701290750301909000,12.199908935546874,0.1689910888671875,1.1026458740234375,0.3908538818359375
1701290750311984000,12.209984130859375,-0.3275146484375,1.66943359375,0.837677001953125
1701290750322060000,12.22006005859375,-0.980865478515625,2.002655029296875,1.419281005859375
1701290750332135000,12.230135009765625,-0.835662841796875,1.751678466796875,1.516937255859375
1701290750342210000,12.2402099609375,0.1196746826171875,1.08404541015625,0.9185028076171875
1701290750352285200,12.25028515625,0.268463134765625,0.714599609375,0.5347747802734375
1701290750362360800,12.26036083984375,0.124908447265625,0.6548004150390625,0.327545166015625
1701290750372436000,12.27043603515625,0.303497314453125,0.712188720703125,0.29840087890625
1701290750382511000,12.280510986328125,0.45697021484375,0.736785888671875,0.2938690185546875
1701290750392586000,12.2905859375,0.549835205078125,0.8224945068359375,0.2780303955078125
1701290750402662100,12.300662109375,0.6714019775390625,0.99005126953125,0.2614593505859375
1701290750412737000,12.310737060546876,0.7834014892578125,1.16290283203125,0.2713775634765625
1701290750422812000,12.32081201171875,0.7834014892578125,1.281463623046875,0.32867431640625
1701290750432888000,12.33088818359375,0.6414337158203125,1.223724365234375,0.3838348388671875
1701290750442963200,12.340963134765625,0.4271392822265625,1.055633544921875,0.410736083984375
1701290750453038000,12.3510380859375,0.195404052734375,0.933441162109375,0.4396514892578125
1701290750463113000,12.361113037109375,-0.3037261962890625,0.8592681884765625,0.6176300048828125
1701290750473189000,12.371189208984376,-0.873138427734375,0.8404541015625,0.8780975341796875
1701290750483264000,12.381263916015625,-0.6710968017578125,0.8177032470703125,0.7683258056640625
1701290750493339100,12.391339111328126,-0.117584228515625,0.7901153564453125,0.5425872802734375
1701290750503414300,12.401414306640625,0.094024658203125,0.7830810546875,0.475128173828125
1701290750513490000,12.411489990234376,0.0569305419921875,0.781951904296875,0.45220947265625
1701290750523565000,12.42156494140625,-0.0389862060546875,0.78826904296875,0.4422607421875
1701290750533640200,12.43164013671875,-0.09027099609375,0.794403076171875,0.4457244873046875
1701290750543715800,12.4417158203125,-0.07171630859375,0.809112548828125,0.448577880859375
1701290750553791000,12.451791015625,-0.0019073486328125,0.8213958740234375,0.4673614501953125
1701290750563866000,12.4618662109375,0.056793212890625,0.7935791015625,0.48870849609375
1701290750573941000,12.47194091796875,0.069549560546875,0.7386474609375,0.4952239990234375
1701290750584017200,12.48201708984375,0.0431671142578125,0.67205810546875,0.4990997314453125
1701290750594092000,12.492092041015624,0.0013580322265625,0.6181793212890625,0.5261077880859375
1701290750604167000,12.5021669921875,-0.0438385009765625,0.5933837890625,0.57867431640625
1701290750614242000,12.512241943359374,-0.0834808349609375,0.6049957275390625,0.641815185546875
1701290750624318200,12.522318115234375,-0.1326751708984375,0.624237060546875,0.6829376220703125
1701290750634393000,12.53239306640625,-0.2124481201171875,0.615570068359375,0.660125732421875
1701290750644468000,12.542468017578125,-0.2637939453125,0.6236724853515625,0.5965728759765625
1701290750654544100,12.552544189453124,-0.20819091796875,0.6975555419921875,0.5309600830078125
1701290750664619000,12.562618896484375,-0.1127166748046875,0.8046875,0.4782257080078125
1701290750674694100,12.572694091796874,-0.061431884765625,0.876434326171875,0.443359375
1701290750684769300,12.582769287109375,-0.047760009765625,0.8585968017578125,0.382781982421875
1701290750694845000,12.592844970703124,-0.066253662109375,0.7872314453125,0.30731201171875
1701290750704920000,12.602920166015625,-0.1315765380859375,0.6978607177734375,0.2267608642578125
1701290750714995200,12.6129951171875,-0.1937103271484375,0.6210174560546875,0.189178466796875
1701290750725070000,12.623070068359375,-0.123138427734375,0.6125946044921875,0.2114715576171875
1701290750735146000,12.63314599609375,-0.001922607421875,0.6446533203125,0.2173919677734375
1701290750745221000,12.64322119140625,0.0576171875,0.6897430419921875,0.239532470703125
1701290750755296000,12.6532958984375,0.0627288818359375,0.7310028076171875,0.325592041015625
1701290750765372200,12.6633720703125,0.04461669921875,0.7413330078125,0.416259765625
1701290750775447000,12.673447021484375,-0.0306549072265625,0.7229156494140625,0.4737091064453125
1701290750785522000,12.68352197265625,-0.1248321533203125,0.6987152099609375,0.5207977294921875
1701290750795597000,12.69359716796875,-0.0812530517578125,0.722412109375,0.507659912109375
1701290750805673200,12.703673095703126,0.05767822265625,0.82635498046875,0.44757080078125
1701290750815748000,12.713748046875,0.062744140625,0.9311981201171875,0.425567626953125
1701290750825823000,12.723822998046876,0.05029296875,0.9692840576171875,0.487030029296875
1701290750835898000,12.733898193359375,0.0348663330078125,0.93011474609375,0.57745361328125
1701290750845974000,12.74397412109375,-0.053680419921875,0.8320159912109375,0.687286376953125
1701290750856049200,12.754049072265625,-0.1071624755859375,0.7071990966796875,0.7959136962890625
1701290750866124000,12.7641240234375,-0.093017578125,0.618804931640625,0.916748046875
1701290750876200000,12.774199951171875,-0.14886474609375,0.6556243896484375,1.0746002197265625
1701290750886275000,12.784275146484376,-0.2260589599609375,0.8713531494140625,1.225189208984375
1701290750896350200,12.79435009765625,-0.2954559326171875,1.094146728515625,1.258270263671875
1701290750906425000,12.804425048828126,-0.300933837890625,1.1788330078125,1.158355712890625
1701290750916501000,12.8145009765625,-0.184814453125,1.1475677490234375,0.9811248779296875
1701290750926576000,12.824576171875,-0.1640777587890625,1.121307373046875,0.8005523681640625
1701290750936651000,12.834651123046875,-0.181640625,1.13629150390625,0.6293792724609375
1701290750946726100,12.84472607421875,-0.154632568359375,1.25860595703125,0.571990966796875
1701290750956802000,12.854802001953125,-0.109222412109375,1.472747802734375,0.617523193359375
1701290750966877000,12.864876953125,-0.107757568359375,1.6861419677734375,0.6396331787109375
1701290750976952000,12.8749521484375,-0.1269683837890625,1.7798004150390625,0.5820465087890625
1701290750987028200,12.8850283203125,-0.112579345703125,1.5713043212890625,0.5021209716796875
1701290750997102800,12.895102783203125,-0.0944366455078125,1.1572723388671875,0.5760650634765625
1701290751007178000,12.905177978515624,-0.1114349365234375,0.889923095703125,0.7133941650390625
1701290751017253000,12.915253173828125,-0.1459197998046875,0.781890869140625,0.752532958984375
1701290751027329000,12.9253291015625,-0.1680450439453125,0.761199951171875,0.6941986083984375
1701290751037404200,12.935404052734375,-0.162353515625,0.7992706298828125,0.59185791015625
1701290751047479000,12.94547900390625,-0.167694091796875,0.8524017333984375,0.509490966796875
1701290751057554000,12.955553955078125,-0.2100677490234375,0.8830108642578125,0.4595184326171875
1701290751067630000,12.965630126953124,-0.2542266845703125,0.895477294921875,0.429290771484375
1701290751077705200,12.975705322265625,-0.2643280029296875,0.884246826171875,0.4095001220703125
1701290751087780000,12.985780029296874,-0.2404632568359375,0.8408203125,0.4220733642578125
1701290751097856000,12.99585595703125,-0.200408935546875,0.77716064453125,0.4658203125
1701290751107931100,13.00593115234375,-0.168487548828125,0.7261199951171875,0.51019287109375
1701290751118006800,13.0160068359375,-0.1356964111328125,0.6869049072265625,0.5203094482421875
1701290751128082000,13.02608203125,-0.110931396484375,0.6627197265625,0.485809326171875
1701290751138157800,13.03615771484375,-0.104888916015625,0.6505889892578125,0.4146575927734375
1701290751148232700,13.046232666015625,-0.115570068359375,0.643218994140625,0.33160400390625
1701290751158307800,13.056307861328126,-0.1378021240234375,0.63690185546875,0.2574920654296875
1701290751168383000,13.066383056640625,-0.1479949951171875,0.626556396484375,0.20635986328125
1701290751178458600,13.076458740234376,-0.14697265625,0.6142120361328125,0.17498779296875
1701290751188533800,13.08653369140625,-0.138458251953125,0.601959228515625,0.1560211181640625
1701290751198609000,13.09660888671875,-0.1319427490234375,0.5974273681640625,0.1462249755859375
1701290751208684800,13.106684814453125,-0.134552001953125,0.611907958984375,0.1483612060546875
1701290751218759700,13.116759765625,-0.147918701171875,0.652008056640625,0.165496826171875
1701290751228834800,13.126834716796875,-0.1589508056640625,0.6973724365234375,0.2053375244140625
1701290751238909700,13.13690966796875,-0.1601104736328125,0.725311279296875,0.261932373046875
