time,seconds_elapsed,z,y,x
1701290738118384600,0.016384521484375,0.03146291362568736,-0.13029869703948496,0.09970072968006133
1701290738128459800,0.026459716796875,0.0502671289473772,-0.1408849729835987,0.09879355170726775
1701290738138535000,0.036534912109375,-0.005556465083360672,-0.0408341146916151,0.052260348591208455
1701290738148610800,0.04661083984375,-0.1261031450457871,0.05128010538220405,-0.027067455145716665
1701290738158685700,0.056685791015625,-0.2025058551162481,0.068593059232831,-0.0021785130828619
1701290738168760800,0.0667607421875,-0.1181716213941574,0.01971300072968006,0.07843933046460151
1701290738178836700,0.076836669921875,-0.03659063190296292,-0.11478957774043083,0.08769581910967826
1701290738188911600,0.08691162109375,-0.0070341364204883575,-0.22503040613532066,0.08349661385416984
1701290738198986800,0.09698681640625,0.0032242227435111998,-0.30820904008150096,0.09280395590364933
1701290738209061600,0.1070615234375,0.004883095866441726,-0.34134617052972316,0.0429039067029953
1701290738219137800,0.1171376953125,0.07320844407379627,-0.5387526566803456,-0.3906044146955013
1701290738229212700,0.127212646484375,0.29839038750901814,-1.0877882224440574,-1.4155606256514788
1701290738239287600,0.13728759765625,0.1593513346530497,-0.39656712249219417,-0.6678630207180977
1701290738249362700,0.14736279296875,0.029620646759867666,-0.0036941783428192138,0.2165712053477764
1701290738259438800,0.15743896484375,0.1948071173071861,-0.7016483859419822,-0.01872866586744785
1701290738269513700,0.167513671875,0.033526275896281,-0.5810954223692417,0.0380108739644289
1701290738279588600,0.177588623046875,-0.28782793083190916,-0.3086345720171928,0.18873218130767344
1701290738289664800,0.187664794921875,-0.30598040424659845,-0.24894144307672977,0.2515022334754467
1701290738299739600,0.19773974609375,-0.11197101318836211,-0.25682430528104305,0.3044002954483032
1701290738309814800,0.207814697265625,0.0030909517526626585,-0.1863946782708168,0.22059856116771698
1701290738319889700,0.2178896484375,0.0029109190106391906,-0.009331307446956634,0.1035363623201847
1701290738329965800,0.2279658203125,-0.13024740524366496,0.1546358504384756,0.0979722984522581
1701290738340040700,0.238040771484375,-0.1785690261464566,0.02878127332627773,0.06048398705720901
1701290738350115800,0.24811572265625,-0.057796355408430096,-0.19594576594829557,0.06911211467087268
1701290738360190700,0.258190673828125,-0.11380012831166386,-0.21264672538042068,0.10630173538029193
1701290738370266600,0.2682666015625,-0.17703955155685544,-0.4409159673064947,0.08499883511066436
1701290738380341800,0.278341796875,-0.1550233153861016,-0.8063760038733482,0.019753332740068436
1701290738390416600,0.288416748046875,-0.06621522418558597,-1.2325240256369112,-0.05734627355337143
1701290738400492500,0.298492431640625,0.020528408765792844,-1.5544213993310927,-0.09573533318042754
1701290738410567700,0.308567626953125,0.004700213580206036,-1.4536813897311687,-0.11962532733380794
1701290738420642600,0.318642578125,0.04796002104878425,-1.199788461726904,-0.37179040863215923
1701290738430717700,0.3287177734375,0.17252046669721602,-1.186826104301214,-0.7177846972286701
1701290738440793900,0.3387939453125,0.07979023361690342,-1.1709054815918207,-0.9408920263469218
1701290738450868500,0.348868408203125,-0.029247721794247627,-1.5080910253107547,-1.2859803060144186
1701290738460943600,0.358943603515625,0.05193769250810146,-1.7838292898982762,-1.6804010641276836
1701290738471018800,0.369018798828125,0.17599194220006464,-1.697469103306532,-1.791830810046196
1701290738481094700,0.3790947265625,0.10133165535014123,-1.7427140201777218,-1.4859487516075371
1701290738491169800,0.389169677734375,0.14396251726541667,-1.6977379833757877,-1.0620265891999006
1701290738501244700,0.39924462890625,-0.20437515611946583,-0.7697562920063734,-0.7111275774270296
1701290738511320800,0.40932080078125,-0.6008919366639107,-0.024361703318357467,-0.7815244712114333
1701290738521395700,0.419395751953125,-0.6711866121828556,0.29158523753881455,-1.2043395491600035
1701290738531470800,0.429470947265625,-0.3751578392386436,0.36752749049067496,-1.2169494398862122
1701290738541545700,0.439545654296875,-0.16884265496730805,0.02107552125453949,-0.8896201042711734
1701290738551621600,0.44962158203125,-0.33293197792768475,-0.6694651952177286,-0.7978226950615644
1701290738561696800,0.45969677734375,-0.7008125196397305,-0.8704863647341727,-0.6508388206809759
1701290738571771600,0.469771728515625,-0.3803483936190605,-0.8044564339876175,-0.17082886034846304
1701290738581846800,0.4798466796875,0.18499416382312772,-0.8214876482874155,-0.022114801174402236
1701290738591922700,0.489922607421875,0.18023615564107895,-0.9698650228530168,0.02489361823797226
1701290738601997600,0.49999755859375,0.1848702451825142,-0.8372674012213945,0.019352350723743438
1701290738612072700,0.51007275390625,0.548334139496088,-0.26397826868891716,0.16203882017135618
1701290738622148900,0.52014892578125,0.05926701248288154,1.194299216660857,1.4306725623264909
1701290738632223500,0.530223388671875,-0.7668787638086825,2.3854051902383566,3.014722791723907
1701290738642298600,0.540298583984375,-0.7106243040800094,2.858170001748204,4.000756274567544
1701290738652373800,0.550373779296875,-0.7499988676130771,2.8597417811095713,4.120038195291161
1701290738662449700,0.56044970703125,-0.8542319800257683,3.7188925128370522,4.105335716199875
1701290738672524800,0.57052490234375,-0.7460814019083977,4.4187551844060415,3.1920114957362413
1701290738682599700,0.580599609375,-0.5287737355122343,3.5291578764885663,0.9850675604209304
1701290738692675800,0.59067578125,-0.2079004076361656,1.15524087947011,-1.2343003876596688
1701290738702750700,0.600750732421875,-0.054228433793783185,-1.7270020717829464,-2.348558976139128
1701290738712825900,0.610825927734375,-0.26316001110859216,-2.71595231885612,-1.5654381756469606
1701290738722900700,0.620900634765625,-0.21401099947094915,0.6914478944450616,1.7564987999022006
1701290738732976600,0.6309765625,0.2162356532504782,3.199520848453045,3.009784166277945
1701290738743051800,0.6410517578125,0.3549473373156041,3.119920072993636,2.2776342590883374
1701290738753126700,0.651126708984375,0.3039466699292883,2.7648890759825706,1.764364418710768
1701290738763202600,0.66120263671875,-0.18872925869822502,1.6500737304031847,0.529536792306602
1701290738773277700,0.671277587890625,-0.6693886228501796,1.3730138618230818,-0.46965427827388045
1701290738783352600,0.6813525390625,-0.6429214716851711,1.8092220898300408,-0.8904626925751566
1701290738793427700,0.691427734375,-0.37337972365021704,2.2098837881594897,-0.984501158709824
1701290738803503900,0.70150390625,-0.1381669461965561,1.617883525416255,-1.3118398466750978
1701290738813578500,0.71157861328125,-0.09513853633105754,-1.4133224913358688,-2.67816707034111
1701290738823653600,0.721653564453125,0.3197375653117895,-3.3124136526614425,-2.6858386278823017
1701290738833728800,0.731728759765625,0.6968436160087585,-3.1241940970510242,-1.2139832835569977
1701290738843804700,0.7418046875,0.48048050045371055,-1.9486258843451738,0.5881026707828044
1701290738853879800,0.7518798828125,-0.2567430567383766,-0.7187351298213005,1.4120000105604529
1701290738863954700,0.76195458984375,-0.49026539688706394,0.13982698836326599,0.9552364857807755
1701290738874030800,0.77203076171875,-0.09596681298189796,0.3488099305391311,0.06729980455189943
1701290738884105700,0.782105712890625,0.3192179253518581,0.2976081510901451,-0.3583730009153485
1701290738894180900,0.792180908203125,0.3226069832682609,0.15125205321907997,-0.4153559941142797
1701290738904255700,0.802255859375,0.02607084532380104,0.02545943542718887,-0.3385211762368679
1701290738914331600,0.81233154296875,-0.3143441818356514,-0.014826982253789901,-0.22742519231736658
1701290738924406800,0.82240673828125,-0.5430453854382038,-0.07062894897460938,-0.12186492295414209
1701290738934481700,0.832481689453125,-0.5289946482539176,-0.2716302447468042,-0.06507949815392494
1701290738944557600,0.8425576171875,-0.12532969472156838,-0.5420101971715688,0.1658341208010912
1701290738954632700,0.8526328125,0.08795883569372817,-0.5707832871913909,0.4979881000936031
1701290738964707600,0.86270751953125,-0.16387891334639862,-0.27647885382175447,0.6911220234915614
1701290738974782700,0.87278271484375,-0.21142039845585822,0.058738020172715184,0.8790542865931987
1701290738984858600,0.882858642578125,-0.4085328700959682,0.11601648918688297,0.7464730315744876
1701290738994933500,0.89293359375,-0.4531821226289496,-0.008995207360386849,0.5986252338409424
1701290739005008600,0.903008544921875,-0.38259416325185447,-0.028938509714603423,0.44135815811604256
1701290739015083800,0.913083740234375,-0.29911155965672803,-0.12632687079906463,0.2986687660589814
1701290739025159700,0.92315966796875,-0.23000002950774504,-0.18354747214615344,0.16798136196285485
1701290739035234800,0.93323486328125,-0.2594061932667158,-0.17728607366383076,0.04768471123874187
1701290739045309700,0.943309814453125,-0.2748246934065595,-0.02530395260453224,0.015083879624307154
1701290739055385900,0.9533857421875,-0.20141458928082137,0.0826706844240427,0.04759323356300592
1701290739065460700,0.963460693359375,-0.10525014396812767,0.015964461851119993,0.14881284337341785
1701290739075536000,0.973535888671875,-0.12351999668478965,-0.24828502499461172,0.3251739111468196
1701290739085610800,0.98361083984375,-0.10941789463944733,-0.4841244099140167,0.599989215670526
1701290739095686700,0.993686767578125,-0.022093758386373518,-0.5948416236490011,0.8311427808612585
1701290739105761000,1.003760986328125,0.058529345858097076,-0.5645066911399365,0.972822411353886
1701290739115836000,1.0138359375,0.033982933622598646,-0.3736562025040388,1.0538573112696408
1701290739125912000,1.023912109375,-0.15531327477600423,-0.26739830626547334,1.071048684567213
1701290739135987000,1.033987060546875,-0.4240788142740726,-0.32428806822299955,0.8967305207982659
1701290739146061800,1.044061767578125,-0.6025380233705043,-0.379463427478075,0.5906894724056124
1701290739156137000,1.054136962890625,-0.5783563527941703,-0.18912731810510158,0.2839773928835988
1701290739166213000,1.064213134765625,-0.4235562151720747,0.11569792475700377,-0.05562427206635475
1701290739176288000,1.0742880859375,-0.3358872110040858,0.3448193995982408,-0.3068766224339604
1701290739186363000,1.08436279296875,-0.29864867311902343,0.21877836000323295,-0.4061103191241622
1701290739196438000,1.09443798828125,-0.19385200853943824,0.018740356305241585,-0.23988836804926394
1701290739206514000,1.104513916015625,-0.01832947394941002,-0.1315641869306564,0.01331248603761196
1701290739216589000,1.114589111328125,0.12767119808010757,-0.2678524797737598,0.1937161072000861
1701290739226664200,1.124664306640625,0.1318260162046179,-0.3281505888700485,0.3054918900772929
1701290739236739800,1.13473974609375,0.020195304353907702,-0.2212333519399166,0.3724219845339656
1701290739246815000,1.14481494140625,-0.16412205618619918,-0.09374737423360348,0.4223112200796604
1701290739256890000,1.15489013671875,-0.24546879853010176,-0.08582534906268119,0.4028349507153034
1701290739266965000,1.164965087890625,-0.23070728272795676,-0.13516133463978766,0.4167167610734701
1701290739277041000,1.175041015625,-0.1320212099831551,-0.19694880551099775,0.4149988512396812
1701290739287116000,1.185115966796875,0.007632759900763631,-0.2386047579795122,0.3536608777016401
1701290739297191000,1.19519091796875,0.031815599520877,-0.12197627437412738,0.301347629879415
1701290739307266000,1.20526611328125,-0.10580306514315306,0.11979425415992737,0.31742315088957546
1701290739317342000,1.215342041015625,-0.31937231219597156,0.24166180746257304,0.20836773288697003
1701290739327416800,1.225416748046875,-0.5560311968047171,0.15364391679167747,-0.03405249172747135
1701290739337492000,1.235491943359375,-0.5900176375586539,0.018420038309693337,-0.12169687291085719
1701290739347568000,1.245568115234375,-0.43453832203336057,-0.10467501096129417,-0.10186696780323981
1701290739357643000,1.25564306640625,-0.29211598341464995,0.052426352807879446,0.061579673339426516
1701290739367718000,1.2657177734375,-0.23984679392985997,0.2619423789471388,0.10894845049679279
1701290739377793000,1.27579296875,-0.2759304992239922,0.33157822523117064,-0.040325580647587775
1701290739387869000,1.285868896484375,-0.372919120401144,0.207491242313385,-0.18446897090524433
1701290739397944000,1.295944091796875,-0.3394623295444995,-0.06540858397781849,-0.22826807288229464
1701290739408019000,1.30601904296875,-0.1331518214482814,-0.20235563299059867,-0.0846311708420515
1701290739418094800,1.3160947265625,0.04845796063356101,0.20389877077937124,0.24853549262434244
1701290739428170000,1.326169921875,0.16314115539006888,0.7936398564189672,0.4882572719350457
1701290739438245000,1.3362451171875,0.15123561354093254,1.0741396363198756,0.5188797892138362
1701290739448320000,1.346320068359375,-0.00014729951620101928,0.715022831299901,0.30648937668204307
1701290739458396000,1.35639599609375,0.11766308735013008,-0.08671674494445324,-0.04817074119001627
1701290739468471000,1.366470947265625,0.3523907116353512,-0.5463239687174558,-0.24739684398323297
1701290739478546000,1.3765458984375,0.5363818358957767,-0.5941659163445234,-0.4056812800571322
1701290739488621000,1.38662109375,0.5500093792319297,-0.4914759417206049,-0.6011223113536834
1701290739498697000,1.396697021484375,0.4700117134094238,-0.3045212914794683,-0.8591016318887472
1701290739508771800,1.406771728515625,0.4188449322085827,-0.08621522516310215,-1.1344131954967975
1701290739518847000,1.416846923828125,0.41473114021420476,-0.05011982943117618,-1.3853683164834976
1701290739528923100,1.426923095703125,0.38197694466896354,-0.3010615064144134,-1.428810860107839
1701290739538998000,1.436998046875,0.17734635248370467,-0.7076075866073369,-1.2371949400573967
1701290739549073000,1.447072998046875,-0.08268880460262298,-0.8076724734246731,-0.7902531365901231
1701290739559148000,1.45714794921875,-0.27548874680586155,-0.5011614694327116,-0.3619368308767676
1701290739569224000,1.467223876953125,-0.4397685508370399,-0.11318097350001334,-0.15147650962471962
1701290739579299000,1.477299072265625,-0.503852023690939,0.19914017807543277,0.07093757653236389
1701290739589374000,1.4873740234375,-0.5119440716665238,0.39139877994358535,0.27138591459691525
1701290739599448800,1.49744873046875,-0.5310591795682906,0.42712709592878817,0.5301628152504563
1701290739609525000,1.50752490234375,-0.4795370821237564,0.32093758875131606,0.8432309858009218
1701290739619600100,1.51760009765625,-0.2894261598087847,-0.03680968148112297,1.0370984841704367
1701290739629675000,1.527675048828125,-0.029645854266360402,-0.4266501260668039,1.1235293979108334
1701290739639751000,1.5377509765625,0.24134441207647322,-0.5313654690384865,1.0561091818496584
1701290739649826000,1.547825927734375,0.36949024193100627,-0.2577653855234384,0.9834648013994097
1701290739659901000,1.55790087890625,0.17551197666339574,0.3260860575556755,0.9880793094575404
1701290739669976000,1.56797607421875,-0.26388364920802415,0.7767869212955236,0.9144155228316784
1701290739680052000,1.578052001953125,-0.6046282736480235,0.6843705034047365,0.6297679756015538
1701290739690126800,1.588126953125,-0.7083424036879092,0.1663350560605526,0.29849019462168214
1701290739700202000,1.598201904296875,-0.46117966072149574,-0.25156010114252564,0.06258943490386008
1701290739710277000,1.608277099609375,0.015635887483879923,-0.45788814489543433,-0.17242577415108679
1701290739720352800,1.618352783203125,0.4350409377932548,-0.5641016174703836,-0.3512394957736134
1701290739730428000,1.628427978515625,0.6820657335937023,-0.633214316663146,-0.4254445496693253
1701290739740503000,1.6385029296875,0.751102298810333,-0.644749271634221,-0.32739334076195953
1701290739750579000,1.648578857421875,0.6756734022080898,-0.4874824881702661,-0.003279167801141739
1701290739760654000,1.658654052734375,0.6306617095708846,-0.3227823398351669,0.35594577376842496
1701290739770729000,1.66872900390625,0.5284836299918592,-0.3678565763145685,0.43564328760057686
1701290739780803800,1.678803955078125,0.3345218774676323,-0.537934910556674,0.47027679408639667
1701290739790880000,1.6888798828125,0.07488207637444139,-0.5989864683687687,0.5832704283207655
1701290739800955100,1.698955078125,-0.2236239003382623,-0.5064958161979913,0.6471329519003629
1701290739811030000,1.709030029296875,-0.48420156680345533,-0.3093061876684427,0.7186766776323318
1701290739821105000,1.71910498046875,-0.6897464242894202,-0.2707943784445524,0.4252911126732826
1701290739831181000,1.72918115234375,-0.7990414232015609,-0.35888007365465163,-0.04065642003715038
1701290739841256000,1.739255859375,-0.7932067256987094,-0.28241233552396294,-0.23470833506286143
1701290739851331000,1.7493310546875,-0.5578197607219219,0.010228548547625541,-0.09885901815891265
1701290739861407000,1.759406982421875,-0.19386274912916124,0.2244622508585453,0.3449319200620055
1701290739871481900,1.76948193359375,-0.003863762756064534,0.08010112619698047,0.8004550893917679
1701290739881557000,1.779556884765625,0.13692527557238934,-0.3136795804470777,1.0095672109052538
1701290739891632000,1.789632080078125,0.33063699885830283,-0.5562672705829144,1.117429619731009
1701290739901707800,1.799707763671875,0.4035303125683218,-0.5003577518343926,1.3660782173410058
1701290739911783000,1.809782958984375,0.10427863205485045,-0.28561960713267326,1.6115598753526805
1701290739921858000,1.819858154296875,-0.2842426196910441,-0.09937164385616779,1.7694646644592285
1701290739931933000,1.829932861328125,-0.7016415178097785,-0.06452127974927425,1.8433225123524666
1701290739942009000,1.840009033203125,-0.9756582923669368,-0.298164031407237,1.673100385725498
1701290739952084000,1.850083984375,-0.8563140469968319,-0.5288935259670019,1.2522253359287976
1701290739962158800,1.860158935546875,-0.5398457126140594,-0.5763303999245166,0.9544207854837179
1701290739972235000,1.870235107421875,-0.24978264314122497,-0.5564455497592687,0.8086562237650156
1701290739982310100,1.88031005859375,0.060707274419069285,-0.48602059892416,0.7779296615898609
1701290739992385000,1.890385009765625,0.2719602804187685,-0.5542676211982965,0.7893734311461448
1701290740002460000,1.9004599609375,0.3461727139033377,-0.7013678154349327,0.7860790657758713
1701290740012536000,1.9105361328125,0.36737544173412023,-0.8074298968404531,0.8161348890826106
1701290740022611000,1.92061083984375,0.3906920929789543,-0.8235814056962728,0.915663769327104
1701290740032686000,1.93068603515625,-0.07223061201758682,-0.8566635910868644,0.6960694167658686
1701290740042761000,1.940760986328125,-0.9243839591383933,-0.7525181569576262,0.5682143134862184
1701290740052836900,1.9508369140625,-1.8690436674557624,-0.6543804388105869,0.4850505848482251
1701290740062912000,1.960912109375,-2.43356672520861,-0.7331178754389286,0.42614889854639765
1701290740072987100,1.970987060546875,-2.4142365863166746,-1.0578951884835959,0.3593111585482955
1701290740083062800,1.981062744140625,-1.9357891991257667,-1.4524264212340117,0.26881664863079785
1701290740093138000,1.991137939453125,-1.6492460474073887,-1.8015858958631752,0.11284604245722293
1701290740103213000,2.001213134765625,-1.8475357461333273,-2.1711551213145253,-0.03075578826963901
1701290740113288400,2.011288330078125,-2.0449556762874126,-2.2772978667408226,0.220868902541697
1701290740123364400,2.0213642578125,-1.942158295766264,-1.9851690238445996,0.6889619228482246
1701290740133439500,2.031439453125,-1.6235235771298409,-1.7463631903350352,0.7679305378839373
1701290740143514400,2.041514404296875,-1.1677356193840502,-1.8068933546215296,0.2349821835681796
1701290740153589500,2.051589599609375,-0.7149123566627502,-1.9943974554389714,-0.4676271563604474
1701290740163665400,2.06166552734375,-0.7216133156061172,-2.1652245622217654,-0.7013681076958775
1701290740173740300,2.071740234375,-0.6280722775995731,-1.9306214410990477,-0.37881986887753005
1701290740183815400,2.0818154296875,-0.006291775354277342,-1.2790215729176997,-0.02728460502773523
1701290740193891600,2.0918916015625,0.18369769427180288,-1.084754553836584,-0.4514946444660425
1701290740203966500,2.101966552734375,-0.2226274366468191,-1.502750833326578,-1.1824281616032122
1701290740214041300,2.112041259765625,-1.4672586641848087,-2.079942233994603,-1.4157579017892479
1701290740224116200,2.1221162109375,-2.450937108334899,-2.020597480100393,-1.2380045028746127
1701290740234192400,2.1321923828125,-0.2835813610370271,-0.4756400746852159,-0.90563746535331
1701290740244267500,2.142267578125,2.169484557753801,1.2973422425061463,-0.670823916350305
1701290740254342400,2.15234228515625,2.670107098004222,1.875552464827895,-0.47245121551603075
1701290740264417500,2.16241748046875,1.9710031358480453,1.4402496612280606,0.34203269148916005
1701290740274493400,2.172493408203125,0.4319716133505106,0.3546230007320642,1.3352549167931078
1701290740284568300,2.182568359375,-0.7969470812708139,-0.7894055798500775,2.180752970743179
1701290740294643500,2.1926435546875,-1.741447361242771,-1.684009317752719,3.2226307981446385
1701290740304719400,2.20271923828125,-3.6702895177096124,-2.444754035785794,4.075888380180299
1701290740314794500,2.21279443359375,-4.2641473910182714,-2.109390446797013,4.372551943896711
1701290740324869400,2.222869384765625,-0.9846850639093667,-0.6038590428411961,3.49641032987982
1701290740334944500,2.232944580078125,1.7571522953748702,0.30481998216509815,2.1513339840352534
1701290740345020400,2.2430205078125,1.9635944670267402,0.26798282815515995,1.013573231676221
1701290740355095300,2.25309521484375,2.113980697196722,-0.011855272966623306,0.5200502942979336
1701290740365170400,2.26317041015625,1.8801983909375966,0.09834405437409877,0.7920935037598014
1701290740375245300,2.273245361328125,0.682754300379753,0.5514683458685875,1.2762336957648395
1701290740385321500,2.283321533203125,-0.9987946186088025,0.6748451346904039,2.0444760760769247
1701290740395396400,2.293396240234375,-2.470449618056416,0.7925596599668264,3.3799545724928377
1701290740405471200,2.30347119140625,-2.729618440636992,1.3854986648648977,4.596425873473287
1701290740415547400,2.31354736328125,-1.7523801125369964,2.1127648916661737,4.795286942346394
1701290740425622500,2.32362255859375,-1.1315699348948896,2.7443261804252863,4.232183688263595
1701290740435697400,2.333697509765625,-0.8425175768345594,3.092741558688879,2.6827994063168763
1701290740445772300,2.343772216796875,-0.30531667964085935,3.0503204670667645,0.0857356249526143
1701290740455848400,2.353848388671875,0.7593671460695565,2.921500025886297,-2.155017933245003
1701290740465923300,2.36392333984375,1.9299428111851213,2.8921494282394646,-3.527524722328782
1701290740475998500,2.37399853515625,2.7580086688190697,3.201491856265068,-3.948438058309257
1701290740486073600,2.384073486328125,3.010891835258901,3.975177888935804,-3.7865842393159865
1701290740496149500,2.3941494140625,2.6775506920084355,4.961040106865763,-2.9926690730869767
1701290740506224400,2.404224365234375,1.763066487854719,5.101062325540185,-2.1307816098719834
1701290740516299500,2.414299560546875,0.8436176470309495,3.7397482538610696,-0.9763067463383078
1701290740526375400,2.42437548828125,0.7036524192407727,2.19850665409863,0.09760697227120399
1701290740536450300,2.4344501953125,1.0278957715392112,1.1057295373260974,0.6918073754072189
1701290740546525400,2.444525390625,1.0019251717194915,0.2611573660492897,0.6009978081911802
1701290740556600300,2.454600341796875,0.6410401879832148,-0.2545861709654331,-0.09877893866002559
1701290740566676500,2.464676513671875,0.6473223369926214,-0.2777969506829977,-1.0307108289599418
1701290740576751400,2.47475146484375,0.9440493213340639,0.15656711076200008,-1.9097095859736204
1701290740586826200,2.484826171875,1.3071750697344542,0.8216746952921151,-2.4276579395562408
1701290740596901400,2.4949013671875,1.6855860655501484,1.3215233285605907,-2.6270336799532172
1701290740606977500,2.5049775390625,1.7461095078349111,1.4506290164232254,-2.6398364629030224
1701290740617052400,2.515052490234375,1.36760878790915,1.2181149765342474,-2.596774735289812
1701290740627127300,2.525127197265625,1.0595613681301475,0.6648012950599194,-2.5095856966584917
1701290740637203500,2.535203369140625,0.9582558336019515,-0.07182195815145968,-2.4103414785742756
1701290740647278300,2.5452783203125,0.8691182912513613,-0.7010293772608042,-2.2723896364331244
1701290740657353500,2.555353515625,0.842275877033174,-1.193617079615593,-2.134670434004068
1701290740667428600,2.5654287109375,0.8143728478461504,-1.6122849747568369,-2.018139565554261
1701290740677504500,2.57550439453125,0.7939210114479065,-1.9733476531475782,-1.864095835790038
1701290740687579400,2.585579345703125,0.7837675739631056,-2.2182833677142857,-1.7905571368485689
1701290740697654500,2.595654541015625,0.7290937344893813,-2.212395478719473,-1.812552695557475
1701290740707729400,2.6057294921875,0.7072985206581651,-2.027878284758329,-1.8543495178014038
1701290740717805300,2.615805419921875,0.674742258837819,-1.9351520702660083,-1.9372747615084052
1701290740727880400,2.62588037109375,0.5171861370384693,-1.8948568847566842,-1.9352996620431542
1701290740737955300,2.635955322265625,0.4569669383972883,-1.946383658376336,-1.7362413170322775
1701290740748031500,2.646031494140625,0.6187750185526907,-2.1560972529143094,-1.5059402770176529
1701290740758106400,2.6561064453125,0.8542810798645019,-2.2537714452028275,-1.2247370250225067
1701290740768181200,2.66618115234375,0.9878737038828432,-2.178487363898754,-0.9128653707802296
1701290740778256400,2.67625634765625,0.9859425896897911,-2.052421774384379,-0.6749553170666098
1701290740788332500,2.68633251953125,0.9213042594321071,-2.083709477573633,-0.6398220443651079
1701290740798407400,2.696407470703125,0.6708803227126598,-2.2300328422188755,-0.6594634411633015
1701290740808482300,2.706482421875,0.36919746952950955,-2.293148346823454,-0.6375491309970617
1701290740818557400,2.716557373046875,-0.03407002738416195,-2.336342760905623,-0.6064318159386515
1701290740828633300,2.72663330078125,-0.479695341425389,-2.406141104274988,-0.5413125702962279
1701290740838708500,2.73670849609375,-0.8848204489044844,-2.6064982569247483,-0.47789808274507517
1701290740848783600,2.74678369140625,-0.9522172840900719,-2.850439115235209,-0.510084780600667
1701290740858859500,2.756859619140625,-0.8906418485343456,-2.9504098940283057,-0.5332397384777665
1701290740868934400,2.766934326171875,-1.2135149353928862,-2.9229402878224846,-0.5045455589130521
1701290740879009500,2.777009521484375,-1.8413824842005968,-2.8317817610383034,-0.1466670635163784
1701290740889084400,2.78708447265625,-2.370562425893545,-2.73490076495409,0.581260842064023
1701290740899160300,2.797160400390625,-2.5048060611665246,-2.587911629876494,1.216653379549086
1701290740909235500,2.8072353515625,-2.3772819434069095,-2.1575416065037247,1.4586501180544496
1701290740919310300,2.817310302734375,-2.47290519451499,-1.2758815213263035,1.1803858421206475
1701290740929386500,2.827386474609375,-2.446144028839469,-0.24843700068593025,0.7807663463205099
1701290740939461400,2.83746142578125,-2.251366722148657,0.5967389817029237,0.39641105514764785
1701290740949536300,2.847536376953125,-2.016345083352923,1.2919336614608763,0.05611293236613273
1701290740959611400,2.857611328125,-1.7497651077330112,1.6955226454138754,-0.08890022646337747
1701290740969687600,2.8676875,-1.5260796864658592,1.4372960721194743,-0.08527472944259643
1701290740979762400,2.877762451171875,-1.3143845627218484,0.44983986299633977,0.03333966728299856
1701290740989837300,2.88783740234375,-1.0837485916644334,-0.46505789039433,0.17764818497449159
1701290740999912400,2.897912353515625,-0.7611450424622744,-0.9355091642647981,0.2086322290420532
1701290741009988400,2.90798828125,-0.6655096625249832,-0.8375649228632449,0.2420335633844137
1701290741020063500,2.9180634765625,-0.8434469666391611,0.3212538150936365,0.548861962762475
1701290741030138400,2.928138427734375,-1.1468716950535773,2.046139333114028,1.4645961669772862
1701290741040213200,2.938213134765625,-2.328667403972149,3.3122885649770497,2.6460265497148034
1701290741050289400,2.948289306640625,-4.450601105999946,4.2331636392116545,4.210703385600447
1701290741060364500,2.958364501953125,-4.729983280047774,4.1374008335024115,5.3871197395682335
1701290741070439400,2.968439453125,-1.8360370315194128,3.8939375295758247,5.279164391762018
1701290741080515300,2.978515380859375,1.0207277796059846,4.2792081820279355,4.191859861181676
1701290741090590500,2.988590576171875,1.2983622332036495,5.1754982655823225,2.6566478969722986
1701290741100665300,2.998665283203125,-1.3288941495895386,6.174540867602825,0.8198185460314155
1701290741110740500,3.008740478515625,-3.843296306619048,6.85402885966301,-0.3136228818237781
1701290741120816400,3.01881640625,-3.0498487579017874,5.096886501160264,0.24531828414350745
1701290741130891500,3.0288916015625,0.08784604123532772,2.568900055414438,1.3746823795571923
1701290741140966400,3.03896630859375,2.24447871620059,1.1261059704005718,1.769258620493114
1701290741151042600,3.04904248046875,2.279595037767291,0.0774333682924509,1.10159375269562
1701290741161117400,3.059117431640625,2.189998353472352,-0.48862756655216216,0.28243337831199167
1701290741171192300,3.0691923828125,2.564312143102288,-0.4879980364769697,-0.22422230462282894
1701290741181267500,3.079267333984375,3.2381197514384983,0.37769700232744213,-0.7625327704936266
1701290741191343600,3.089343505859375,3.9853175901561975,1.4924498040646315,-1.2609569239169358
1701290741201418500,3.09941845703125,4.7832437455922365,1.9926076494127511,-1.6891858436077831
1701290741211493400,3.109493408203125,5.204489966788888,1.8227391585290431,-1.9772338469311594
1701290741221568300,3.119568359375,4.899350835672021,1.069969072636962,-2.245353160947561
1701290741231644400,3.12964453125,3.7658173456192015,0.40161213092207904,-1.7381515345677732
1701290741241719600,3.139719482421875,2.1014637454509733,0.34634383268654345,-0.2782236516624689
1701290741251794700,3.149794677734375,0.0805576377928257,0.600405102995038,1.3070736551865934
1701290741261870300,3.159870361328125,-2.3505215083837507,0.5852969657123088,2.2351643598884343
1701290741271945500,3.169945556640625,-3.654179509907961,0.2880097171396017,1.940795921371877
1701290741282020600,3.1800205078125,-2.231643784546852,-0.07044014840424061,0.9653758947402238
1701290741292095500,3.190095458984375,-0.27428222056031226,-0.36012101362645627,0.21544337036162614
1701290741302171400,3.20017138671875,0.3318611338257789,-0.4466454508692026,-0.5775231168404221
1701290741312246500,3.21024658203125,0.2639198164999485,-0.39069033941328524,-1.1673816913798452
1701290741322321400,3.2203212890625,-0.016648370728362352,-0.30688802061080933,-1.230585166528821
1701290741332396500,3.230396484375,-0.3976677406778559,-0.2637070505321026,-0.8174687680348753
1701290741342472400,3.240472412109375,-0.6792156048595905,-0.43131928692162036,-0.14419745853245258
1701290741352547300,3.25054736328125,-0.771135179144144,-0.8707587519347667,0.3813929342359304
1701290741362622500,3.26062255859375,-0.7629285648781806,-1.313521808412671,0.7327727152630686
1701290741372698600,3.27069873046875,-0.7856546298187226,-1.538068230423331,1.1882239884003996
1701290741382773500,3.2807734375,-0.8436170625090599,-1.5441472580760716,1.7299448472365735
1701290741392848400,3.290848388671875,-1.0240567048329858,-1.605741836723685,2.1737027599707246
1701290741402923300,3.30092333984375,-1.4084288740754127,-1.9078426230579613,2.3361726650357246
1701290741412999400,3.31099951171875,-2.1192682822108266,-2.197641561701894,2.4078932086393237
1701290741423074600,3.321074462890625,-2.8054735998272893,-2.250504552361369,2.4349340680390594
1701290741433149700,3.331149658203125,-2.9689468367159364,-2.1579659693956375,2.181556688341498
1701290741443224300,3.341224365234375,-2.515357850319147,-2.1978829692423343,1.4261121225431561
1701290741453300500,3.351300537109375,-1.6796400166273115,-2.147068143284321,0.5940449203133583
1701290741463375600,3.361375732421875,-1.2514929300010205,-1.8212042040467262,0.005722761560976505
1701290741473450500,3.371450439453125,-1.6539046868681906,-1.530159064733982,-0.45883127096444365
1701290741483526400,3.3815263671875,-2.164537164479494,-1.2251999663591384,-0.8596104581937193
1701290741493601500,3.3916015625,-2.100998466026783,-0.8539145846396684,-1.0598416463762521
1701290741503676400,3.401676513671875,-1.6699030509889126,-0.6656652184128761,-1.1552671829551457
1701290741513751600,3.41175146484375,-1.6402619459629058,-0.8883423394203186,-1.6747992985978721
1701290741523827500,3.421827392578125,-1.7135726813673973,-1.2706681705921887,-2.6979016983807087
1701290741533902300,3.43190234375,-1.0658920324563979,-1.56895495159626,-3.5130879084363578
1701290741543977500,3.4419775390625,0.043893502262234686,-1.9819488927543163,-3.5173055261313912
1701290741554052400,3.45205224609375,0.9364093279749155,-2.757855524083972,-3.0304309407263994
1701290741564128500,3.46212841796875,0.9356500340402126,-3.7010043894469735,-2.4601886285439134
1701290741574203400,3.472203369140625,0.030527276743389665,-4.41366750587821,-1.8265099092394113
1701290741584278300,3.4822783203125,0.0932850904840976,-3.7466491192907094,-0.6615449236124754
1701290741594354400,3.4923544921875,1.5543120937377213,-1.2403063500761986,0.8591972012177109
1701290741604429600,3.5024296875,2.2811738313913343,0.17146540468633173,1.4773729387030003
1701290741614504400,3.51250439453125,1.0235475862670689,0.11547872904837131,2.3273010840550064
1701290741624579300,3.522579345703125,-2.00575763836503,-1.062087379476428,3.6872432828590274
1701290741634655500,3.532655517578125,-3.3500323124378917,-2.46068810249865,4.304708826248348
1701290741644730600,3.542730712890625,-1.089651605163142,-2.8834885673999784,3.389251685409248
1701290741654805500,3.552805419921875,-0.4576501714210957,-2.310831887552142,1.941250971662998
1701290741664880600,3.562880615234375,-1.1761129871070384,-1.4268033196777103,0.37144934010952707
1701290741674956500,3.57295654296875,-1.0953455059558153,-0.49477498326599595,0.06316022052913904
1701290741685031400,3.583031494140625,-1.4422053253404796,1.2906202407747507,0.8014458539947867
1701290741695106600,3.5931064453125,-1.0716916586458682,3.259534879910946,1.638327470768988
1701290741705182500,3.603182373046875,-0.6917508229143917,4.131768380573392,2.224583344641328
1701290741715257300,3.61325732421875,-0.378314549703896,3.829832429412007,2.4855744142130014
1701290741725332500,3.62333251953125,0.10764555120468139,2.9009692790329455,2.451250412067771
1701290741735407400,3.633407470703125,-0.03512333582937717,3.0694314102500675,2.7939345532029867
1701290741745483500,3.6434833984375,-0.14711641471907497,5.272508441004157,3.9365737252533433
1701290741755558400,3.653558349609375,0.47138300176262854,8.670334185752273,5.1115328661501405
1701290741765633500,3.663633544921875,0.5367443855978549,11.560531310880183,4.828040918695926
1701290741775708400,3.67370849609375,0.6625181525588035,10.079912814384699,1.3614268844038246
1701290741785784600,3.68378466796875,1.3235735390886663,5.103180048346519,-0.7779547960311174
1701290741795859500,3.693859375,1.6263199298501014,1.4176017760902642,-0.15090484721660613
1701290741805934300,3.703934326171875,1.3473337693825362,-0.665292293447256,0.017433949881792067
1701290741816010500,3.714010498046875,1.0361030433923006,-1.023037810114026,-0.3011211276471615
1701290741826085600,3.724085693359375,1.3703811752319335,-0.15693828216195105,-0.4289946433663368
1701290741836160500,3.734160400390625,1.5293138460814952,1.6099878037303685,-0.3693342476516962
1701290741846235400,3.7442353515625,0.9269587780624627,3.505499353003502,-0.38393969610929485
1701290741856311600,3.7543115234375,0.30697306854575873,4.539831879591942,-0.357844300866127
1701290741866386400,3.764386474609375,0.06610591859221458,4.1473920661628245,-0.466115290492773
1701290741876461600,3.774461669921875,0.15826222424209116,2.4806881034761665,-0.6701601917445659
1701290741886536400,3.784536376953125,0.4606871279641986,0.6815326496303081,-0.7536755102992058
1701290741896612400,3.7946123046875,0.897034179919958,-0.5579413412749767,-0.8180524131417274
1701290741906687500,3.8046875,1.4174115142151713,-1.2106845342725514,-1.0284615887284279
1701290741916762400,3.814762451171875,1.918114133964479,-1.4163316100239753,-1.470671102976799
1701290741926838300,3.82483837890625,2.19499952276051,-1.4432897595763206,-2.248919328996539
1701290741936913400,3.834913330078125,2.221837553064525,-1.4382739772409199,-3.183408502563834
1701290741946988500,3.844988525390625,2.1332859939083457,-1.4427075757741927,-4.0105981618851425
1701290741957063400,3.8550634765625,2.1807336815208194,-1.5857283917427063,-4.510243381536006
1701290741967139600,3.8651396484375,2.323191749040037,-1.8895394891262054,-4.7738434645622965
1701290741977214500,3.87521435546875,2.4300322674721477,-2.230887997743487,-4.946619367325305
1701290741987289300,3.885289306640625,2.3899347964920103,-2.5416689341396093,-5.062000481218099
1701290741997364500,3.895364501953125,2.0897101792931556,-2.7828789061814545,-5.103949279153347
1701290742007440600,3.905440673828125,1.6009091558702289,-2.8030899195611476,-5.047852128878236
1701290742017515500,3.915515625,1.0036861900426446,-2.602701202729344,-4.864433836069703
1701290742027590400,3.92559033203125,0.48582478409111496,-2.277560317069292,-4.508673940262198
1701290742037666600,3.93566650390625,0.18863120515123008,-1.9469161578178404,-4.022950862979888
1701290742047741400,3.945741455078125,0.3094686847537756,-1.5743781456887722,-3.4836885032117366
1701290742057816600,3.955816650390625,0.41002822322025895,-1.423197404140234,-3.1728701574146747
1701290742067891500,3.965891357421875,0.07733823735490442,-1.7125725644141434,-3.0852175929248333
1701290742077967400,3.97596728515625,-0.7305532856479287,-2.221654889973998,-3.051384881427884
1701290742088042500,3.98604248046875,-1.2469891888409852,-2.6129806046813724,-2.5315263103097676
1701290742098117400,3.996117431640625,-1.1465958007216452,-2.8691993452847004,-1.5040177845224738
1701290742108192800,4.00619287109375,-0.8612234463483095,-3.207196789908409,-0.10920564012825489
1701290742118268700,4.0162685546875,-0.4856640405714512,-3.4691900222599505,1.4481065122082828
1701290742128343800,4.02634375,-0.45821021645665166,-3.4973756677806374,2.7774244401678443
1701290742138419000,4.0364189453125,-0.8645464532911777,-3.2962294105798002,3.8895112375661727
1701290742148494800,4.046494873046875,-1.771336303550005,-2.9559926625967026,4.904509241348505
1701290742158569700,4.05656982421875,-2.7731583071559665,-2.6998464027076956,5.570525172895192
1701290742168644900,4.066644775390625,-2.8718957447618245,-2.7530145137935875,5.4435044746130705
1701290742178719700,4.0767197265625,-2.707747969612479,-2.731037659785151,4.569956091959774
1701290742188796000,4.0867958984375,-2.459706105723977,-2.361800442767143,3.3237171369642016
1701290742198870800,4.096870849609375,-2.284973808196187,-1.8049650169074534,2.0288918457150458
1701290742208945700,4.106945556640625,-2.5255361299842596,-1.208887713983655,0.9213970522820949
1701290742219020800,4.117020751953125,-2.8002941513627766,-0.5363450110167265,0.1588105057746172
1701290742229097000,4.127096923828125,-2.902055320703983,0.19400982944965361,-0.4022691335260868
1701290742239171800,4.137171875,-3.1944542127132416,0.7636281645148992,-0.8422314533695578
1701290742249246700,4.147246826171875,-3.5032734936475753,0.6973351989179849,-1.1806377710551024
1701290742259323000,4.157322998046875,-3.268900674149394,0.25900106479823587,-1.2871969883278012
1701290742269397800,4.167397705078125,-2.342245847469568,1.1015952140003442,-0.3989201153591275
1701290742279473000,4.177472900390625,-1.9037135604292152,2.838338927596807,1.5060285398229956
1701290742289547800,4.1875478515625,-3.3614708212971687,4.818125673881172,3.9476118366181847
1701290742299623700,4.197623779296875,-2.6509944012552498,6.0029381002724165,5.831805873063207
1701290742309698800,4.20769873046875,1.3124778523176908,6.446180464699864,5.06548656976819
1701290742319774000,4.21777392578125,3.7968747471839186,6.786520673057437,2.360387068837881
1701290742329849600,4.227849609375,3.143769735136628,7.247669865575432,-0.09179740920960902
1701290742339924700,4.2379248046875,-0.7948959939599036,10.262219346559046,-0.09535714751780032
1701290742349999900,4.247999755859375,-10.37385367513895,15.333733506053685,0.6023492228001356
1701290742360074800,4.25807470703125,-11.556431474345922,12.909849824339151,1.6114175442725418
1701290742370151000,4.26815087890625,2.7168285171687603,2.193897698998451,0.14691314723193644
1701290742380225800,4.278225830078125,7.8548852331072085,-1.5941805782675742,-0.979603742057085
1701290742390300700,4.28830078125,5.960829143339395,-3.7456139310240744,-0.8346370527178049
1701290742400375800,4.298375732421875,5.557080000388622,-5.2876119021117685,-0.3637859658747911
1701290742410452000,4.308451904296875,7.22456546884179,-5.562184630051255,0.1657674853056669
1701290742420526800,4.31852685546875,8.601166541501879,-3.2881402121484276,0.17714637293219565
1701290742430601700,4.328601806640625,9.466273551285266,0.009238952988386154,-0.16405542069077492
1701290742440676600,4.338676513671875,9.98537107490301,2.9964801558077334,-0.20545418352782724
1701290742450752800,4.348752685546875,9.106913000637292,5.710934929582476,-0.1658499028921127
1701290742460828000,4.358827880859375,6.4718246090441935,6.824384832027554,-0.11414426557421684
1701290742470902800,4.36890283203125,2.615053319302201,5.607792535015941,0.06145429339408874
1701290742480978700,4.378978759765625,-9.522763500270248,2.1242168445289136,0.38105800319314
1701290742491053800,4.3890537109375,-19.0125810087502,-0.2799070747047663,0.6061340020358562
1701290742501129000,4.39912890625,-6.696854430657625,-1.2702689421415327,-0.5936372162953019
1701290742511203800,4.409203857421875,1.6385265004724263,-1.8918822528600692,-0.4323422002285719
1701290742521279700,4.41927978515625,2.449765726467967,-1.9458570041537284,0.40689679332673545
1701290742531355000,4.42935498046875,1.3033043657809495,-1.8109405841857193,0.8316004615008831
1701290742541429800,4.4394296875,0.19998539672791957,-1.3756225830167532,0.7343427410587668
1701290742551506000,4.449505859375,-0.07890928606390953,-0.8281506133079528,0.4600146355301141
1701290742561580800,4.459580810546875,-0.06480127486758865,-0.5403916560590267,0.604039952366054
1701290742571655700,4.46965576171875,-0.32440263451337814,-0.34200843383073803,0.9449474392175674
1701290742581730800,4.479730712890625,-0.630976182347536,-0.2824760484099388,0.998015012538433
1701290742591807000,4.489806884765625,-0.4201507906427607,-0.8116518984496593,1.1285136160641909
1701290742601881900,4.4998818359375,-0.10810034576747565,-1.5866513518065213,1.2650921240255235
1701290742611956700,4.509956787109375,0.031658874589204786,-2.5156717385739085,1.156911735291779
1701290742622031600,4.520031494140625,-0.6106418348491192,-3.3468934298902746,1.2369441801667214
1701290742632107800,4.530107666015625,-1.8662381085157393,-3.8110108245640992,1.705399019522965
1701290742642183000,4.540182861328125,-3.036511721944809,-3.704075467455387,2.2820871468439696
1701290742652257800,4.5502578125,-4.219025223743915,-3.1606846295803783,2.559106683413684
1701290742662332700,4.560332763671875,-4.5546004096567625,-2.424505613005161,1.522402751518786
1701290742672408800,4.570408935546875,-3.2829519958555697,-1.6988415607035159,-0.4275406451657414
1701290742682484000,4.58048388671875,-1.748950284218788,-1.2172814483195542,-1.819395693320036
1701290742692558800,4.590558837890625,-0.9730909991621971,-0.8744622826278209,-2.6548054839760065
1701290742702634800,4.600634765625,-0.43021278698444365,-0.6072060151815414,-3.13703370487988
1701290742712710000,4.6107099609375,0.28795886373519897,-0.48788288566470145,-3.2595129603400825
1701290742722784800,4.62078466796875,0.893501914140582,-0.6513374178528786,-3.0234611017137762
1701290742732860000,4.63085986328125,1.500432619512081,-1.4145464801728724,-2.693970788672566
1701290742742935800,4.640935791015625,1.9498913742363453,-2.6307652676969764,-2.0827891478583216
1701290742753010700,4.6510107421875,1.7133891414940357,-3.7408728739768264,-1.1542772951349616
1701290742763085800,4.6610859375,1.6361854903042314,-4.140641422858834,0.04112286850512027
1701290742773160700,4.67116064453125,2.21176711768806,-3.633634150007367,1.0423737942248583
1701290742783236900,4.68123681640625,2.708376330643892,-2.622166950699687,1.7107225526332854
1701290742793311700,4.691311767578125,1.874095836278796,-1.8321487919092176,2.3599255888059734
1701290742803386600,4.70138671875,-0.716102443230152,-1.4508955584049223,3.262341169503331
1701290742813462800,4.711462890625,-2.254704926660657,-0.9877706818997859,3.3381673948600885
1701290742823538000,4.721537841796875,-0.5791011067468672,0.01006429789662361,1.9299521635353565
1701290742833612800,4.73161279296875,1.3053478543072938,1.0265373426675797,0.13445932385027407
1701290742843687700,4.741687744140625,0.6916273426651954,1.2353992888122796,-0.8723562502592802
1701290742853763800,4.751763916015625,-0.7973592422682791,0.6725684219300746,-0.9936135627090931
1701290742863839000,4.7618388671875,-2.1545845102638004,-0.08970482084453106,-0.46459787166714667
1701290742873913900,4.771913818359375,-3.4722096623420713,-0.38557811096608635,0.8283043425649405
1701290742883988700,4.78198876953125,-2.946606994614005,0.1590752941906452,2.373128769250214
1701290742894065000,4.79206494140625,-2.2913749074101446,1.1265618974745273,3.761351598381996
1701290742904139800,4.802139892578125,-4.068102256348729,1.7496780139714478,5.117362302955985
1701290742914215000,4.81221484375,-5.454497577792406,2.0594488965421913,5.878168980309367
1701290742924290800,4.822290771484375,-3.346263315293193,2.667819863849878,4.906741530445218
1701290742934365700,4.83236572265625,-0.9146795805953443,3.4173592972576614,2.6869284689456223
1701290742944440800,4.84244091796875,0.055359483650326724,3.1727865707844494,0.6607751082837581
1701290742954515700,4.852515625,0.5134104178920388,3.1008617367804048,-0.48175242008566854
1701290742964591600,4.862591552734375,1.036143375402689,4.554208195468783,-0.13463584946095944
1701290742974666800,4.872666748046875,1.6418921775132416,7.252359484696388,1.3227625149667261
1701290742984741600,4.88274169921875,0.9662810268864035,10.618733275604248,2.2158663697004317
1701290742994816800,4.892816650390625,0.637147564458847,12.521521537882089,2.1729285607278346
1701290743004893000,4.902892822265625,1.334820032507181,9.981237336099147,1.0519903483539819
1701290743014967600,4.912967529296875,2.469657883156836,4.305276689264178,0.7054623912721872
1701290743025042700,4.923042724609375,3.1175185648098585,0.7450076351970434,0.6093044487655163
1701290743035118800,4.933118896484375,3.0419015982896087,-0.7837596829175949,-0.20978023003339766
1701290743045194000,4.943194091796875,2.2064900540679693,-1.0071189409703016,-1.510988500317931
1701290743055268900,4.953268798828125,1.6935642048224806,-0.7337246091604233,-2.6454338445186614
1701290743065343700,4.96334375,1.3539762761369347,-0.2995996171683073,-3.0488644230395554
1701290743075420000,4.973419921875,1.0451759921640158,0.2109329071998596,-2.586056357398629
1701290743085494800,4.983494873046875,0.9194231218606234,0.5119675256073475,-1.6808447162419557
1701290743095570000,4.99356982421875,1.012244905681908,0.5555559074431657,-0.9292430896073579
1701290743105644800,5.003644775390625,1.1058303673520684,0.33657939451932906,-0.6162240188956261
1701290743115720200,5.01372021484375,1.073993505847454,-0.09089023123681544,-0.7358499307513237
1701290743125795300,5.02379541015625,0.9007473552241921,-0.6085065763860941,-1.0780039105325936
1701290743135870500,5.033870361328125,0.8063347950801253,-1.1381652415066956,-1.475165491786599
1701290743145946400,5.0439462890625,0.801413705290854,-1.578856167885661,-1.8677040894150734
1701290743156021200,5.054021240234375,0.8891942800745367,-1.899973204857111,-2.29701554364562
1701290743166096400,5.064096435546875,1.1916525015443562,-2.1798644974708554,-2.79885213586092
1701290743176171300,5.074171142578125,1.5817866683796047,-2.377980008673668,-3.4208751964241264
1701290743186247400,5.084247314453125,1.800689239284396,-2.477185063791275,-4.133855123719573
1701290743196322600,5.094322509765625,1.7656360460817813,-2.3626164353251458,-4.722686693298816
1701290743206397200,5.104397216796875,1.6064888556987047,-2.0174650272935626,-4.930751936107874
1701290743216472300,5.114472412109375,1.4287050616458057,-1.4855395862847565,-4.75458931351602
1701290743226548500,5.124548583984375,1.2730671945579348,-0.9006845191210507,-4.228059009549021
1701290743236623400,5.134623291015625,1.19095998923555,-0.5286603017330169,-3.508143730032444
1701290743246698500,5.144698486328125,1.1395692630857228,-0.358401934748888,-2.8711013795137403
1701290743256774400,5.1547744140625,0.9000662410922348,-0.26951135289669037,-2.397597147813439
1701290743266849300,5.164849365234375,0.4491299611613154,-0.44139644429981706,-2.0317653553247452
1701290743276924400,5.17492431640625,-0.14893033227324484,-0.9507476499289274,-1.7732710710048674
1701290743286999300,5.184999267578125,-0.5952636484533548,-1.5118693748056888,-1.5275702172845602
1701290743297075200,5.1950751953125,-0.6377367625236511,-1.9872762252569198,-1.2847937265783547
1701290743307150300,5.205150390625,-0.4810749592155218,-2.4598563278496264,-0.9399106140941381
1701290743317225500,5.2152255859375,-0.3731440151982009,-2.946535682943463,-0.47865883798450226
1701290743327301400,5.22530126953125,-0.3561871813088655,-3.3621710785210133,0.10602467200458049
1701290743337376300,5.235376220703125,-0.3795966984689235,-3.6580087128072973,0.6746072342813014
1701290743347451400,5.245451416015625,-0.4440349761098623,-3.9046693514704702,1.1128089741930365
1701290743357526300,5.2555263671875,-0.7710645981259644,-4.218779724550247,1.3024448263421653
1701290743367602400,5.2656025390625,-1.2288409532099962,-4.5230461644858115,1.3757827420145272
1701290743377677600,5.275677490234375,-1.5497487313449383,-4.773513794216513,1.3898130209326742
1701290743387752200,5.285752197265625,-1.6557085214197635,-4.801819851246476,1.5779840612262486
1701290743397827300,5.295827392578125,-1.1618564982175827,-4.5163148104041815,1.6729805587381124
1701290743407903500,5.305903564453125,-0.2790769074909389,-4.098232606196404,1.6989689864754676
1701290743417978400,5.315978271484375,0.37598084605932236,-3.5174300292938945,1.617279129782319
1701290743428053500,5.326053466796875,0.8033511030942201,-2.5883552819907663,1.3912690649598836
1701290743438128000,5.336128173828125,0.824570928190276,-1.5628706632465124,1.297883802036941
1701290743448204300,5.346204345703125,0.3652338265955448,-0.6175520526289939,1.1176637207478284
1701290743458279400,5.356279541015625,-0.6314618469726294,0.07199965280592441,0.6134338036552072
1701290743468354300,5.366354248046875,-2.2224562694847583,0.5332943912744522,-0.08491407943665981
1701290743478430200,5.37643017578125,-3.7118706513762474,0.7042495083510876,-0.5529045161515475
1701290743488505300,5.38650537109375,-4.607637003317475,0.7285714641809463,-0.2182441069960594
1701290743498580500,5.39658056640625,-3.7825954619407653,1.6879472417235373,1.3184665713384747
1701290743508655400,5.4066552734375,-2.8241221861958503,3.243265882155299,3.246524007168412
1701290743518731300,5.416731201171875,-3.85166666007936,5.2152901777446266,5.088476400211453
1701290743528806400,5.426806396484375,-3.829644797885418,6.387181747764348,6.072605510738492
1701290743538881300,5.43688134765625,-1.1925094106346368,6.125498312014341,4.792314064015448
1701290743548957400,5.44695751953125,2.6618834595382213,5.6221291034042835,1.733297372534871
1701290743559032300,5.4570322265625,3.316522841545939,6.907150208997726,0.5267810638576745
1701290743569107200,5.467107177734375,-3.876253404325247,12.225403917610645,2.291752508550882
1701290743579182300,5.477182373046875,-31.242344290614128,22.44931837569475,4.152244182369112
1701290743589258500,5.487258544921875,-8.087098828744887,11.208396619832515,6.704650199100374
1701290743599333400,5.49733349609375,15.797273393100498,0.0811591108173132,0.7026449957638978
1701290743609408300,5.507408203125,10.649459253257513,-2.879872130468488,-1.2620002954900265
1701290743619483100,5.517483154296875,5.591081054189801,-5.342860326603055,-1.189883153784275
1701290743629559300,5.527559326171875,4.6126749974846835,-6.6851411965101954,-0.812894591987133
1701290743639634400,5.537634521484375,5.8910243702292435,-6.3068257700234645,-0.4995224700540304
1701290743649709300,5.547709228515625,7.409320563212036,-4.260959408631921,-0.9249421775430441
1701290743659784200,5.5577841796875,8.245283311575651,-1.2956243326723575,-1.657628675827384
1701290743669860400,5.5678603515625,7.708505754360556,2.8658517884224652,-1.2828425925105809
1701290743679935500,5.577935546875,6.465194961771369,6.928848830586672,0.4802250643879175
1701290743690010400,5.58801025390625,3.566806931403279,8.608986859863997,2.414949264630675
1701290743700086300,5.598086181640625,-4.982267603811621,5.012438285669684,3.2505086928904054
1701290743710161400,5.608161376953125,-10.062014754122496,0.32957682228088375,2.4188112007558344
1701290743720236300,5.618236328125,-4.609259051561355,-1.006930140399933,-0.08595686648786068
1701290743730311400,5.6283115234375,0.8749749083250761,-1.2540794393628836,-1.2868231865793467
1701290743740387300,5.63838720703125,2.4102695823818445,-1.0244447543025017,-1.6939520350962876
1701290743750462200,5.648462158203125,2.296103689497709,0.05905716912448406,-1.916922001570463
1701290743760537300,5.658537353515625,1.8499796321541069,0.8621201029270887,-2.2273796973615885
1701290743770613500,5.668613525390625,1.4413953241318462,0.9590209727555513,-2.3761159683674573
1701290743780688400,5.6786884765625,0.7540794149249792,0.8460282153040171,-2.309882916264236
1701290743790763300,5.68876318359375,-0.3035281887888908,0.6991261739879846,-1.5805051041364668
1701290743800838100,5.698838134765625,-0.9169126003444195,0.35753275069892404,-0.7076523025318979
1701290743810914300,5.708914306640625,-0.8742027549088001,-0.19613982721567153,-0.14155366602540015
1701290743820989400,5.718989501953125,-0.5775567268490791,-0.8435574412763118,0.24797581291496754
1701290743831064300,5.729064208984375,-0.20971244376050308,-1.3148007423073051,0.5854892734140157
1701290743841139200,5.73913916015625,-0.10974864269746466,-1.5744769298881292,0.9608826749742031
1701290743851215400,5.74921533203125,-0.15612692924644797,-1.8789163883030413,1.1011661749333144
1701290743861290500,5.75929052734375,-0.1288157650053501,-2.3623124839425085,0.9204954272672533
1701290743871365400,5.769365478515625,-0.07335399002432823,-2.91677591997385,0.7045166348546743
1701290743881441300,5.779441162109375,-0.500569348758459,-3.2810277497947213,0.770998985543847
1701290743891516400,5.789516357421875,-1.8788544289827345,-2.963274051776528,1.2837421716988087
1701290743901591300,5.79959130859375,-3.680332188296318,-1.9457330855131147,1.9986703104525803
1701290743911666400,5.80966650390625,-3.8942251143455504,-1.3945347887575625,2.280811427819729
1701290743921742300,5.819742431640625,-2.040107651734352,-1.6215589990586041,1.8223507437333464
1701290743931817200,5.829817138671875,-0.40750294252634045,-1.7809037578403948,1.0090291585057973
1701290743941892400,5.839892333984375,-0.43461423681378364,-2.0564128898471594,0.4355880502820015
1701290743951967200,5.84996728515625,-1.715482898902893,-2.5607827999323605,-0.02204056689441204
1701290743962043400,5.86004345703125,-3.0687597945988174,-2.9293600917369127,-0.5566626996412873
1701290743972118300,5.8701181640625,-2.848238974842429,-2.4857559082597493,-1.307457101546228
1701290743982193200,5.880193115234375,-1.1400532472103833,-1.2995365376800299,-2.2134689531698823
1701290743992269300,5.890269287109375,0.3733908295661211,-0.2624514975130558,-2.8239354314520955
1701290744002344400,5.900344482421875,1.3452151697933674,0.2763350614368915,-3.1710259908527134
1701290744012419300,5.91041943359375,1.843991205394268,0.0396446126461029,-3.350401438011229
1701290744022494200,5.920494140625,1.7728128058433532,-0.7981786688923835,-3.208820883978903
1701290744032570400,5.9305703125,0.9233400030434131,-1.710221617373824,-2.5602771884977815
1701290744042645500,5.9406455078125,-0.03851009219083935,-2.1459885313540696,-1.2183888250395656
1701290744052720400,5.950720458984375,0.22835111152324825,-1.7970009061604737,0.2492597152456641
1701290744062795500,5.96079541015625,1.0698160009671003,-1.175824817815423,1.4360036942213772
1701290744072871400,5.970871337890625,0.7936031046051532,-1.0910738199859857,2.4541639614269135
1701290744082946300,5.9809462890625,0.02790390596985817,-1.6083838756650686,3.2082886767983436
1701290744093021400,5.991021484375,-1.5980214716047048,-2.629613175052404,3.829889128035307
1701290744103097300,6.001097412109375,-2.205073173007369,-3.3791929404705763,3.8060286522373556
1701290744113172000,6.011171875,-0.47548218070976433,-2.6676141121447086,2.3489728176370264
1701290744123247000,6.0212470703125,-0.05023490717820823,-0.8857558300584554,0.6104416361019015
1701290744133322200,6.031322265625,-1.0368576611518858,0.1482832665413618,-0.3706824473902583
1701290744143398400,6.0413984375,-1.2788139215163885,0.5395826777637005,-0.3938368207454681
1701290744153473000,6.05147314453125,-1.6510978127539158,1.3079057220965624,0.25743746874332424
1701290744163548200,6.061548095703125,-1.1793081298865378,2.6612363938063384,1.3418646903216838
1701290744173623000,6.071623046875,-0.46102395870313045,3.606671908801794,2.22898011829555
1701290744183699200,6.08169921875,-0.7249065119326115,3.581002045494318,2.883482137659192
1701290744193774300,6.0917744140625,-0.8973258563429116,2.6197861930429935,3.4076147328346966
1701290744203849000,6.101848876953125,-0.28555414068102836,1.5074989046365022,3.2392128073722124
1701290744213925000,6.111925048828125,0.20587138602659105,1.7546593095153569,2.598001646736264
1701290744224000300,6.122000244140625,0.36233985871970653,3.572739244061708,2.530111767336726
1701290744234075100,6.1320751953125,0.6636369274556636,5.976601297488808,3.063094608443975
1701290744244150300,6.142150390625,0.831078483453393,8.010529383805395,3.4322231043905016
1701290744254226200,6.15222607421875,0.626377164119482,8.281619530326127,2.6402450437039136
1701290744264301000,6.162301025390625,0.19976123258322476,6.148501586461067,1.2211439689666033
1701290744274376200,6.172376220703125,0.49325946413651106,3.4514877768307923,0.7296510761111974
1701290744284451300,6.182451416015625,0.9956056133091449,1.969450061187148,0.7842495122611522
1701290744294527000,6.19252685546875,1.312568014819175,1.370579912674427,0.8699024273663759
1701290744304602000,6.20260205078125,1.3950266639277338,1.215049743744731,0.7247820087701082
1701290744314677200,6.21267724609375,1.3205214580416678,1.406734929639101,0.3395002504020929
1701290744324753400,6.22275341796875,1.0370306796312332,1.920331517753005,-0.13018705335855482
1701290744334828000,6.232828125,0.5780331121891736,2.2593208960235116,-0.5439134004443884
1701290744344903200,6.242903076171875,0.18668986182510852,2.0273112985253334,-0.7484656666964292
1701290744354978000,6.25297802734375,-0.18339783454239367,1.401134040892124,-0.8625701847821473
1701290744365054200,6.26305419921875,-0.3509551258742809,0.7636170585989952,-0.9693202484518288
1701290744375129300,6.27312939453125,-0.20501155432686208,0.22069091562628745,-1.0532166752785443
1701290744385204000,6.283203857421875,0.09537059152126312,-0.19039280799627303,-1.3682698821663857
1701290744395279000,6.293279052734375,0.27832389716655015,-0.3760463125109672,-1.7868161967545746
1701290744405355300,6.303355224609375,0.3862298528730869,-0.46670215047001834,-2.2072820812284943
1701290744415430100,6.31343017578125,0.49666649610102176,-0.5536328304260969,-2.6673902402609584
1701290744425505300,6.32350537109375,0.7007935226783156,-0.6664134064316749,-3.102356943774223
1701290744435581200,6.333581298828125,1.0598647349908947,-0.8507768711358308,-3.5231425617218015
1701290744445656000,6.343656005859375,1.46446304211691,-1.0667688152909278,-3.9209377647042274
1701290744455731200,6.353731201171875,1.6654548394083977,-1.3848673812240362,-4.353455906021595
1701290744465806300,6.363806396484375,1.6321137108206747,-1.6530290730774402,-4.7789422490060325
1701290744475882200,6.37388232421875,1.38894924371019,-1.761681170976162,-5.017753927734494
1701290744485957000,6.38395703125,1.0211123950093983,-1.687822738561034,-4.883437811747193
1701290744496032300,6.3940322265625,0.9402531439214944,-1.462030115881562,-4.246404229056835
1701290744506107100,6.404107177734375,1.169897473593056,-1.2763561531007288,-3.3640894793629643
1701290744516183000,6.41418310546875,1.3843129622116683,-1.1664362272232771,-2.721830855500698
1701290744526258200,6.424258056640625,1.4991735593616962,-0.7715642182111739,-2.215807917511463
1701290744536333000,6.4343330078125,1.5851299874581395,-0.4576385540485382,-1.8597388096243141
1701290744546409200,6.4444091796875,1.4234347200274466,-0.7217699674725532,-1.8690438135862348
1701290744556484000,6.454484130859375,1.040966265514493,-1.3428221371769904,-2.0311235502898692
1701290744566559000,6.46455908203125,0.7659080921456217,-1.9858388859301805,-2.18464939365983
1701290744576634000,6.474634033203125,0.7530075479097664,-2.6690947060912844,-2.3036633110970257
1701290744586710300,6.484710205078125,0.8216232573658228,-3.261656694370508,-2.2858219494581222
1701290744596785200,6.49478515625,0.7810849107503891,-3.589351356166601,-2.058272838500142
1701290744606860300,6.5048603515625,0.5757299498133361,-3.6767204275399443,-1.6553192298412323
1701290744616935200,6.51493505859375,0.41753742980659003,-3.605582359999418,-1.0947685828506946
1701290744627011000,6.525010986328125,0.3704248193673789,-3.559050325927138,-0.45998570169657466
1701290744637086200,6.535086181640625,0.27412498417198655,-3.5507927851915357,0.1992950763761997
1701290744647161300,6.545161376953125,-0.23736074926778672,-3.4192747754901647,0.8857558300584554
1701290744657237200,6.5552373046875,-1.45608494374156,-3.21879545776546,1.7508821290642023
1701290744667312000,6.56531201171875,-2.7481863629847765,-3.05652165979445,2.840825775976479
1701290744677387300,6.57538720703125,-3.7380005334109065,-2.985945902311802,3.9415959373295304
1701290744687462100,6.585462158203125,-4.108281122002006,-2.7999194728314873,5.070533331763744
1701290744697538000,6.5955380859375,-3.7349978444635865,-2.3809119704723356,5.598521433323621
1701290744707613200,6.60561328125,-2.912984126475453,-1.8385598279953002,5.034223416498303
1701290744717688000,6.61568798828125,-1.8593255526483057,-1.2441010661840437,3.6836499345421787
1701290744727763200,6.62576318359375,-0.7698749499499797,-1.0429454566329717,1.953519209344685
1701290744737839000,6.635839111328125,0.07063830132484436,-1.2351105349987745,0.2785807945370674
1701290744747914000,6.6459140625,0.3031803251992911,-1.3320967450231314,-0.7823679362982511
1701290744757989000,6.655989013671875,0.09605682021975517,-1.1319155334621667,-1.2738242965355515
1701290744768065300,6.666065185546875,-0.3811521112173796,-0.5373614945828914,-1.5049764004215598
1701290744778140200,6.67614013671875,-1.1319908637207001,0.0902256298482418,-1.3956202459067106
1701290744788215000,6.686215087890625,-2.1277432650893924,0.49478258205056186,-1.1432333385512232
1701290744798290200,6.696290283203125,-2.8947435363858935,1.1365116290807724,-0.6778147981509566
1701290744808366000,6.706365966796875,-2.9777509054183957,2.395424479949474,0.5008943429291248
1701290744818441200,6.716441162109375,-3.5759874322026968,4.0427293301612135,2.302700019022822
1701290744828516400,6.726516357421875,-4.788092354667186,6.343960445675253,4.354231274308264
1701290744838591000,6.736591064453125,-3.918500892946124,8.152938789877295,5.563651195472478
1701290744848667100,6.746667236328125,-0.6549369036495685,7.873806206676363,4.71926782476604
1701290744858742300,6.7567421875,3.731034201529622,5.4366141305774445,1.6156483137100934
1701290744868817200,6.766817138671875,4.6823973530083896,4.575339830824732,-0.33890988329350946
1701290744878893000,6.77689306640625,-0.9704635732680559,8.728400005751848,1.3139087619036436
1701290744888968200,6.78696826171875,-17.47523349381685,14.345375964176654,4.319585785123706
1701290744899043000,6.79704296875,-7.839005526930094,7.393818458175659,7.605865464097261
1701290744909118200,6.8071181640625,10.371060829550027,-0.5333405685037375,2.806880544015765
1701290744919194000,6.817194091796875,7.936279321724176,-2.884830045136809,-0.3367255249917507
1701290744929269000,6.82726904296875,4.276899905085563,-4.423721866902709,-1.5986054089725017
1701290744939344100,6.83734423828125,3.641922085881233,-4.565065689569711,-2.1989310169905423
1701290744949419300,6.847419189453125,4.721861932912469,-2.985896802473068,-2.257196158954501
1701290744959495200,6.8574951171875,5.886851468458771,-0.9514864855974912,-3.1026158869713543
1701290744969570000,6.867570068359375,5.988246727097034,1.493537599301338,-3.1307693837881088
1701290744979645200,6.877645263671875,4.934382401564717,4.09814609695673,-2.2234365126937625
1701290744989721000,6.88772119140625,3.1079648467838763,5.624535580024123,-0.8399176234692335
1701290744999796200,6.897796142578125,-0.4963046405186876,3.991396033287048,1.4918670357406139
1701290745009871400,6.907871337890625,-3.4364012668579815,0.7832920654058456,3.41100262170732
1701290745019946000,6.917946044921875,-2.242852576303482,-0.7458540228933096,3.319752909508347
1701290745030022100,6.928022216796875,-0.28191954703833905,-1.2132277890145777,2.060426801663637
1701290745040097300,6.93809716796875,0.39091947199404237,-0.8256780857145786,0.9555366377711295
1701290745050172200,6.948172119140625,0.21061379478070882,-0.3437544007152319,-0.004971358671784401
1701290745060248000,6.958248046875,0.1025409398083575,-0.2919260138005018,-0.6189136963710189
1701290745070323200,6.9683232421875,-0.05529343267679214,-0.37346272575855255,-0.8611232008442282
1701290745080398000,6.978398193359375,-0.2979565261363983,-0.4682920500099659,-0.7573159126281738
1701290745090473200,6.98847314453125,-0.5131202027738094,-0.6340922685414553,-0.4737555761128664
1701290745100549000,6.998549072265625,-0.8013526227533817,-0.7822194677382707,-0.1278247081413865
1701290745110624300,7.008624267578125,-1.1556757637560366,-0.8923878154188394,0.199596689671278
1701290745120699400,7.018699462890625,-1.384414376759529,-1.0674071131944656,0.4238903059646487
1701290745130774300,7.028774169921875,-1.4286445636302232,-1.2929513140708206,0.5202160062536597
1701290745140850400,7.038850341796875,-1.3968606013566254,-1.518577348011732,0.5301993478685617
1701290745150925300,7.04892529296875,-0.7926993606984615,-1.6099445491105318,0.5002236040607094
1701290745161000200,7.059000244140625,0.015635376027226446,-1.6038573381513357,0.4604579953834414
1701290745171076400,7.069076416015625,0.14753215591311453,-1.7318126869350672,0.47153351614922284
1701290745181151500,7.0791513671875,-0.08631108675301075,-1.901972269719839,0.5032949743300676
1701290745191226400,7.089226318359375,-0.06635083326399326,-2.013783123910427,0.47332858287245033
1701290745201301200,7.09930126953125,0.04568389737692195,-2.0183967551857234,0.4598737657546997
1701290745211377400,7.10937744140625,-0.257976982447505,-1.8869769451618192,0.481233072386682
1701290745221452300,7.119452392578125,-1.1583283240914344,-1.73273973865211,0.5837631802737713
1701290745231527400,7.12952734375,-2.416176760599017,-1.5908832902878522,0.8192752329349517
1701290745241602300,7.139602294921875,-2.904638907456398,-1.5632961951822042,0.5755912719950079
1701290745251678200,7.14967822265625,-1.8107108670830725,-1.540733650240302,-0.7207461773827671
1701290745261753300,7.15975341796875,-0.22537527405023575,-1.3194050212323665,-2.0904151126921175
1701290745271828500,7.169828369140625,0.5081178644418716,-1.0209411300957203,-2.8927517780467866
1701290745281904000,7.179904052734375,0.38818332502841946,-0.7706962032049894,-2.809280590894818
1701290745291979300,7.189979248046875,-0.06887596782743931,-0.9418523958116769,-1.9926278154179453
1701290745302054400,7.200054443359375,-0.8221955042958259,-1.629537722852826,-1.384793146944046
1701290745312129300,7.21012939453125,-1.901375472870469,-2.033908212572336,-0.9349211352437734
1701290745322205200,7.220205078125,-1.7722341291725634,-1.199475157994032,-0.6774725605845451
1701290745332280300,7.2302802734375,-0.16027590215206144,-0.047153965362906454,-1.0842828446716068
1701290745342355200,7.240355224609375,0.7385358088344335,0.18527239624261854,-1.5029510320737958
1701290745352430300,7.250430419921875,0.4604658864289522,-0.4111924446940422,-1.4622794144675135
1701290745362506500,7.260506591796875,0.08172850820310414,-1.3030056750953196,-0.988824282605946
1701290745372581000,7.2705810546875,-0.8459919749468564,-1.6099480562418698,-0.24225538944154976
1701290745382656300,7.28065625,-0.29059213484823704,-1.055330306431651,0.05693827727437019
1701290745392731100,7.290731201171875,1.5468635312974452,-0.1931833154976368,0.06475918015837669
1701290745402807300,7.300807373046875,1.8627187022179363,0.42941140747368334,0.45649406018853184
1701290745412882400,7.31088232421875,1.4266412609837948,0.7634498853385449,1.3285045657500625
1701290745422957000,7.32095703125,0.8648597570240497,0.7436755098104476,2.0611250130608676
1701290745433033200,7.331033203125,0.6533544567637145,0.12053133626282214,2.713856223359704
1701290745443108400,7.3411083984375,1.4016601105928421,-1.0232780486106872,2.841423741869628
1701290745453183500,7.35118359375,1.5202338830471038,-2.1112673465847966,2.732986748026311
1701290745463258400,7.36125830078125,1.0551894366562367,-2.7325287751257417,2.7482395544767377
1701290745473334300,7.371334228515625,0.7460605052508413,-2.534541274216771,2.8758740007430315
1701290745483409400,7.381409423828125,0.5876761159338056,-1.1677829656571148,3.2913398849725723
1701290745493484300,7.391484375,-0.103738168502599,0.6330161637425422,3.9858763930827377
1701290745503560200,7.401560302734375,-1.1378281185068189,2.0133155063986776,4.610519280755519
1701290745513635300,7.41163525390625,-0.894040112670511,2.8216040658950803,5.095242825606465
1701290745523710200,7.421710205078125,0.007636047836393117,3.272794758978486,5.298356583487987
1701290745533785300,7.431785400390625,-0.3389262499064207,3.7958682004898785,4.886907533684373
1701290745543861500,7.441861572265625,-1.000769864204526,4.7563159911781545,3.5099393812775608
1701290745553936100,7.45193603515625,-0.8460445819169282,5.77355534414649,1.781460807201266
1701290745564011300,7.46201123046875,-0.17707798387110232,6.355017846262455,0.3588239595532417
1701290745574086100,7.472086181640625,0.42750776580944655,6.367015158048272,-0.56845396746099
1701290745584162300,7.482162353515625,0.9725526545017957,5.6329965343773365,-0.824496766975522
1701290745594237400,7.492237548828125,1.5160589354500174,3.9481379063189026,-0.9966419706195593
1701290745604312000,7.50231201171875,2.1661469377636906,2.0369459728330375,-1.4543641112983225
1701290745614388200,7.51238818359375,2.475565938156843,0.9293196619749069,-2.0564456230729817
1701290745624463400,7.52246337890625,1.6859255266375839,0.7510410701423883,-2.566552615505457
1701290745634538500,7.53253857421875,0.7351970198005437,1.2210405085921288,-2.6417022567749022
1701290745644613400,7.54261328125,-0.26507658531963824,1.8429957646161317,-2.029081815329194
1701290745654689300,7.552689208984375,-1.1389531770139931,2.0397972706109284,-0.9804641582787036
1701290745664764400,7.562764404296875,-1.2901862332716583,1.645697999536991,-0.31325930920839307
1701290745674839300,7.57283935546875,-0.6952909797392786,1.0620084690213203,-0.492311223500967
1701290745684914400,7.58291455078125,-0.03915478330254554,0.7330021401047706,-1.1636036341458558
1701290745694990300,7.592990234375,0.38783904163539407,0.552591796940565,-1.6664654777556658
1701290745705065200,7.603065185546875,0.6030263914093374,0.38996202513873574,-1.882339348489046
1701290745715140400,7.613140380859375,0.6819326087333262,0.1087386071383953,-2.069476369559765
1701290745725216500,7.623216552734375,0.7716355298817157,-0.23622458484470843,-2.3921488192796705
1701290745735291100,7.633291015625,0.8921443620517849,-0.6656716481536626,-2.9410107820421456
1701290745745366300,7.6433662109375,1.0133606118388474,-1.0444698897212743,-3.6383629320949313
1701290745755441200,7.653441162109375,1.0849141283124684,-1.2348907547682524,-4.197734598433971
1701290745765517300,7.663517333984375,1.0626216324836015,-1.2748404878407715,-4.6308822698265315
1701290745775592400,7.673592529296875,0.980640683889389,-1.2408248209923505,-4.887604283776879
1701290745785667000,7.6836669921875,0.7931751615166663,-1.1664058320850132,-4.944930683586001
1701290745795742200,7.6937421875,0.6612479864925146,-1.0243009619176386,-4.798797288554907
1701290745805818400,7.703818359375,0.5419453152418137,-0.9231266525536775,-4.5200791313737625
1701290745815893500,7.7138935546875,0.23949089316427707,-1.0877227559924125,-4.0763235567271705
1701290745825968400,7.723968505859375,0.16423194630146026,-1.3956559017419814,-3.458142558544874
1701290745836044300,7.734044189453125,0.34061917142942544,-1.7749825510978698,-2.9790783546298742
1701290745846119400,7.744119384765625,0.4770991874523461,-2.1143249805897475,-2.6460493460685015
1701290745856194300,7.7541943359375,0.7217560850776732,-2.294984914600849,-2.291353280100226
1701290745866269400,7.76426953125,0.8814590096473693,-2.256390103268623,-1.703031998130679
1701290745876345300,7.774345458984375,0.8431786710917949,-1.9896160663813351,-0.8617425017863511
1701290745886420200,7.784420166015625,0.5898698265857995,-1.662374993571639,-0.07421440624594688
1701290745896495400,7.794495361328125,0.40414895592331884,-1.498621770697832,0.5891074639111757
1701290745906570200,7.8045703125,0.1559312970764935,-1.6250146924704312,1.0292898562461137
1701290745916646100,7.814646240234375,-0.3361772434592247,-2.0318448503017423,1.2276833076074718
1701290745926721300,7.82472119140625,-1.1051466959368437,-2.714104060640931,1.332910399493575
1701290745936796200,7.834796142578125,-1.7276159658975898,-3.472823994848132,1.4423156538471578
1701290745946872300,7.844872314453125,-1.9332436062961815,-4.076189116692543,1.5518185233563184
1701290745956947200,7.854947265625,-1.7221271592229603,-4.319785107088089,1.7710358592987059
1701290745967022000,7.86502197265625,-1.0923897248901426,-4.138194614228606,2.015490220089257
1701290745977097200,7.87509716796875,-0.3422247069299221,-3.6604631202220914,2.2034829812064767
1701290745987173400,7.88517333984375,0.3725222300380468,-2.935081391993165,2.345041615667939
1701290745997248500,7.89524853515625,0.9419200542204081,-1.9582588050872087,2.306934295591712
1701290746007323400,7.905323486328125,1.0949369251549244,-0.8802519719451666,1.9497475818514822
1701290746017398300,7.915398193359375,0.6728618519186973,0.11428455082774161,1.2124562201201916
1701290746027474400,7.925474365234375,-0.3461463373530656,0.8115829248666763,0.4039914272740483
1701290746037549300,7.93554931640625,-1.5705203012168407,0.9076081809043883,-0.25773440586328505
1701290746047624400,7.94562451171875,-2.5512206063389775,0.34503567269742486,-0.5726400209739804
1701290746057700400,7.955700439453125,-2.8798370591551063,-0.36815994317531586,-0.5856126075327396
1701290746067775200,7.965775146484375,-2.591233467775583,-0.677439242836833,-0.5016454535573721
1701290746077850400,7.975850341796875,-2.311616900449991,-0.6314297713339329,-0.5663228006511927
1701290746087925200,7.98592529296875,-2.2200345952957865,-0.12430033340752124,-0.6007827041357755
1701290746098001200,7.996001220703125,-2.085124605068564,1.1389970161557197,-0.02445435003787279
1701290746108076300,8.006076171875,-2.638362298697233,3.1232512632429597,0.6649839581504464
1701290746118151000,8.01615087890625,-3.3891011710226535,5.294179005542397,0.9605600188910961
1701290746128226000,8.02622607421875,-2.9078976169914004,7.168323941659927,1.644405329377949
1701290746138302200,8.03630224609375,-0.918034297850728,8.814604709520935,2.2573855440467594
1701290746148376800,8.046376953125,1.9183014732301233,9.080818774437903,1.7585966489642857
1701290746158452000,8.056451904296875,3.494854624870419,6.284277253606915,0.07358662973642349
1701290746168528100,8.066528076171876,2.9828824230879545,1.7746154713511466,-1.2436729038998484
1701290746178603000,8.07660302734375,1.136961710935831,-0.7319231126964092,-1.3809414399519562
1701290746188678100,8.08667822265625,-0.8119085035592317,-1.2480448353737592,-0.5863575806811452
1701290746198753000,8.0967529296875,-0.25693244183063507,1.3762486059606074,1.6753586860463021
1701290746208829200,8.1068291015625,0.11495382839143276,5.666629339388012,3.8797152352169153
1701290746218904000,8.116904052734375,-2.721530411249399,8.463409345149993,5.35596238476038
1701290746228979200,8.126979248046876,-5.47024985819757,6.796148917624354,5.6260331251055
1701290746239055000,8.13705517578125,-2.2172703912794587,1.2647989862978457,3.33528365611732
1701290746249130000,8.1471298828125,1.091748358246684,-1.6729706218659877,1.1995768648028373
1701290746259205000,8.157205078125,1.8052654611587524,-2.8272832805752754,-0.3355488824278116
1701290746269280000,8.167280029296874,3.302428265219927,-2.813281058707833,-0.6732029204413295
1701290746279356000,8.17735595703125,5.293642414447665,-1.7881816398888826,-0.359082610489428
1701290746289431000,8.18743115234375,5.903328556007146,-0.2278425409466028,-0.3716667822524905
1701290746299506000,8.197505859375,5.858265425443649,1.0708277352929114,-0.4198939298048615
1701290746309581000,8.2075810546875,5.682699599701166,1.4601105459958315,-0.3631102585703134
1701290746319657000,8.217656982421875,3.6288545145153996,1.0643974099844693,-0.41107144866287704
1701290746329731800,8.22773193359375,-0.42702012842297554,0.42495793519616126,0.4088979040160775
1701290746339807000,8.237806884765625,-3.131523417025804,-0.02147767231464386,1.795346416951716
1701290746349883100,8.247883056640624,-2.929782701063156,-0.16195055736601352,2.196020390240848
1701290746359958000,8.2579580078125,-1.5207038386464118,-0.04778583352565765,1.5570494097471237
1701290746370033200,8.268033203125,-0.795699127036333,0.0008627543091773986,0.6670934976503252
1701290746380108000,8.27810791015625,-0.7097919449090957,-0.24203122529685495,-0.17296411881148815
1701290746390184200,8.28818408203125,-0.7347405082046985,-0.4774766424626112,-0.8834779482543468
1701290746400259000,8.298259033203125,-0.6567372310698032,-0.6765729813963175,-1.4124001157939434
1701290746410334200,8.308334228515625,-0.5762802041072398,-0.8587707924991845,-1.6626774836495517
1701290746420410000,8.31841015625,-0.6038193318853154,-1.0112088406324387,-1.474298353563249
1701290746430485000,8.328485107421875,-0.7249111881077289,-1.1617688199341296,-0.9239709944233298
1701290746440560000,8.33856005859375,-0.8241642470855265,-1.2749503779560327,0.037827918612957
1701290746450635000,8.348635009765625,-0.8977929623980074,-1.4191735554516314,1.0911322721749543
1701290746460711000,8.3587109375,-1.024753381860256,-1.7300561986565588,1.7880901622131466
1701290746470786000,8.3687861328125,-1.059996544677019,-2.0210908165752888,2.217475266201794
1701290746480861000,8.37886083984375,-0.8507446493666618,-2.2148002017736435,2.5438749197512864
1701290746490936000,8.38893603515625,-0.4057563911199569,-2.3356892654329537,2.6654952202945945
1701290746501012000,8.399011962890626,-0.4865291329681873,-2.492988782122731,2.644235574644804
1701290746511086800,8.4090869140625,-1.3077145834386348,-2.662642753472924,2.67584505713433
1701290746521162000,8.419161865234376,-2.1645476858735084,-2.826554966300726,2.50051596275717
1701290746531238100,8.429238037109375,-2.458846274024248,-3.07328750115633,1.6917136085197328
1701290746541313000,8.43931298828125,-2.102264540439844,-3.2096219712287186,0.31259412329792974
1701290746551388000,8.449387939453125,-1.6717641686856746,-2.8283868579030034,-0.8822712028130888
1701290746561463000,8.459463134765626,-2.028378635495901,-1.9902076025336979,-1.6829978026226162
1701290746571539200,8.469539306640625,-2.862450455546379,-0.6136100370049477,-2.230746543446183
1701290746581614000,8.479614013671876,-2.864662286376953,0.9371703754752874,-2.485387951730192
1701290746591689200,8.489689208984375,-1.833705373701453,1.3436644332200287,-2.8263895466059443
1701290746601763800,8.499763916015626,-0.7773498158752917,0.512289012646675,-3.2493186063230035
1701290746611840000,8.509840087890625,-0.3541846093147993,-0.40206279729902744,-3.7091938333824275
1701290746621915100,8.5199150390625,-0.0535264595368877,-0.6239741946309805,-3.9939325660273433
1701290746631990000,8.529989990234375,1.4450468323767185,-0.08499415893554688,-3.6097757200360294
1701290746642066000,8.54006591796875,3.0382378150850533,0.5683703808307647,-2.6636358561635016
1701290746652141000,8.55014111328125,3.652384443184733,0.7465577872484922,-1.4519792619884013
1701290746662216000,8.5602158203125,3.3621903677433727,0.06652969696223736,-0.5458583970323204
1701290746672291000,8.570291015625,2.493406715273857,-1.3098603632956742,0.24767273831516504
1701290746682367000,8.580366943359374,0.23904548748433588,-2.519984925597906,1.455103823749721
1701290746692441900,8.59044189453125,-3.952186304926872,-3.098588531151414,3.408127066271007
1701290746702517000,8.60051708984375,-2.976834959617257,-2.011336315280199,4.170265284489095
1701290746712593200,8.61059326171875,2.322545706221461,0.03448328436017036,3.0396339456185695
1701290746722668000,8.62066796875,3.0871482687264677,0.8896925849854945,2.105890621982515
1701290746732743000,8.630742919921875,2.055429139506817,-0.18689853613972662,1.2025281158238648
1701290746742818000,8.640818115234374,0.6078665249168872,-1.9886358231723307,0.9893573665693401
1701290746752894200,8.650894287109375,-1.0141173484902828,-2.940874003919959,1.6139286503106354
1701290746762969000,8.660968994140624,-1.9567355410426854,-2.6702456296920776,2.2136285276457666
1701290746773044200,8.671044189453125,-1.3391127612650393,-1.278804715296626,2.4056907301589847
1701290746783118800,8.681118896484374,0.26620807356759907,0.97200378844738,2.678061564140022
1701290746793195000,8.691195068359375,0.4905411450885236,2.8269524411857128,3.0375667839556932
1701290746803270100,8.701270263671875,-0.3272621155977249,3.269706145313382,3.2767811982661486
1701290746813345000,8.711344970703125,-1.1554045455992221,2.4932068087875843,3.727052438417077
1701290746823421000,8.7214208984375,-1.8316548709124325,1.6371856072574853,4.090325778594613
1701290746833496000,8.73149609375,-2.002384654800594,1.669333142146468,3.9750796892583367
1701290746843571000,8.741571044921875,-1.0973678055636584,2.634420867595076,3.1701831102877853
1701290746853646000,8.75164599609375,-0.5039845640294254,3.757869601485133,1.814120967787504
1701290746863722000,8.761721923828125,-0.01522021935507655,4.588464685335755,0.733130150398612
1701290746873796900,8.771796875,0.7353999950267374,5.215794035613537,0.11144728157520294
1701290746883872000,8.7818720703125,0.962123030424118,6.000355098041892,-0.29289573561549187
1701290746893947100,8.791947021484376,0.750089614636451,6.702642366409301,-0.5787058968842029
1701290746904023000,8.80202294921875,0.44432431444525716,6.839580063071846,-0.8093851225614547
1701290746914098000,8.812097900390626,0.39685207691341634,5.456566785281896,-0.8441945701360702
1701290746924173000,8.822173095703125,0.5283037433803082,3.1305648011267184,-0.5935200196564198
1701290746934249200,8.832249267578124,0.5226398723997175,1.4534966808140277,-0.4430623316854238
1701290746944324000,8.842323974609375,0.27284911901727316,0.926488237941265,-0.5128828868865967
1701290746954399200,8.852399169921876,-0.12485270659327506,1.477123640117049,-0.6742822401106358
1701290746964473900,8.862473876953125,-0.3310688144043088,2.360026418831944,-0.7475731017708778
1701290746974550000,8.872550048828124,-0.4154913109317422,3.071509385567903,-0.6067407357573509
1701290746984625200,8.882625244140625,-0.6036383858278394,3.1305683082580567,-0.40257600751817224
1701290746994700000,8.892699951171876,-0.46465106315910815,2.401036474612355,-0.5089613295286893
1701290747004775200,8.902775146484375,0.12909005190208553,1.3837830931186674,-1.0487146876841782
1701290747014851000,8.91285107421875,0.7500351079702376,0.4571230057418346,-1.7228280009686945
1701290747024926000,8.922926025390625,1.0761693885818122,-0.19929332281053064,-2.2847224637836216
1701290747035001000,8.9330009765625,1.0582093689993024,-0.5221311922252178,-2.7618659287691116
1701290747045077000,8.943076904296875,0.8859145277515054,-0.5628337894916534,-3.2874960690259933
1701290747055151900,8.95315185546875,0.7599304790407418,-0.4858621934920549,-3.816805190056562
1701290747065227000,8.96322705078125,0.7317030402049421,-0.5279191279768943,-4.185324614194036
1701290747075302100,8.97330224609375,0.8387666998684405,-0.7681330747187137,-4.415498812958598
1701290747085378000,8.9833779296875,1.0446148511499165,-1.1995020460009573,-4.649245609512925
1701290747095453000,8.993452880859374,1.2340361837655305,-1.6643243740737437,-4.889661216306686
1701290747105528000,9.003528076171875,1.2647358579337595,-1.931598177176714,-4.994893861150741
1701290747115603200,9.013603271484374,1.1915744678720832,-1.9936592042922971,-4.920323481073975
1701290747125679400,9.023679443359375,1.089276999697089,-1.8783441413730382,-4.674276590394974
1701290747135754200,9.033754150390624,1.076360234978795,-1.6393582751214504,-4.275482439503073
1701290747145829000,9.0438291015625,1.1078228563435375,-1.334383979177475,-3.799018773475289
1701290747155905300,9.0539052734375,1.090554764547944,-0.9044161068648099,-3.246512901252508
1701290747165980400,9.06398046875,1.001795700120926,-0.5161614701658487,-2.6213357605725527
1701290747176055300,9.07405517578125,0.8069121565766632,-0.32747780417501926,-1.9584031819939611
1701290747186130200,9.084130126953125,0.47897068041265006,-0.3528063066989183,-1.3027613449454307
1701290747196206300,9.094206298828125,0.14296645543277262,-0.5950754324048757,-0.7884902185708283
1701290747206281200,9.10428125,-0.019864830290526152,-0.9042746525675058,-0.4086351614266634
1701290747216356400,9.1143564453125,0.1836848347902298,-1.1540431941181422,0.013975333860516548
1701290747226431500,9.124431396484376,0.4787481237031519,-1.4389917701214552,0.5310685319185257
1701290747236507400,9.13450732421875,0.6203361303895711,-1.8147206872463226,1.0080033225893974
1701290747246582300,9.144582275390626,0.6138127199701965,-2.1499761396855113,1.3231044602721929
1701290747256657400,9.154657470703125,0.5715868586592376,-2.4069682027488946,1.4858639959335327
1701290747266733300,9.1647333984375,0.8844406558066606,-2.6636580679953097,1.4090385304063557
1701290747276808200,9.17480810546875,1.2434843955904245,-2.83844589510262,1.166440318876505
1701290747286883300,9.18488330078125,1.373864341172576,-2.781449750161171,0.9166793761104345
1701290747296958200,9.194958251953125,1.2201835995018482,-2.6009295168817044,0.6488420939058065
1701290747307034400,9.205034423828126,0.8864801988102495,-2.379499765586853,0.3312128990501165
1701290747317109200,9.215109130859375,0.3364854326255619,-2.037842044889927,0.10435410844385623
1701290747327184100,9.22518408203125,-0.49615540477372705,-1.7888737138062714,0.055605567365884775
1701290747337259300,9.23525927734375,-1.3412199626773595,-1.8049761228233574,0.12165128020346164
1701290747347335400,9.24533544921875,-1.8875955154515802,-2.1004232964873313,0.3798164786994457
1701290747357410300,9.255410400390625,-2.0157371805876494,-2.3482781133711335,0.7890718178510665
1701290747367485200,9.265485107421876,-1.9223931264579295,-2.2284318367630243,1.09250180696249
1701290747377561300,9.275561279296875,-1.8463345536500215,-1.7949363748461007,1.134178802219033
1701290747387636200,9.28563623046875,-1.7901684297919271,-1.2874030322939156,0.8741595002889633
1701290747397711400,9.29571142578125,-1.9102378476314246,-0.8892425031304358,0.4190209463626146
1701290747407786500,9.305786376953124,-2.0664614056527615,-0.5573351920753717,-0.05548223324716091
1701290747417862400,9.3158623046875,-2.1041583913624287,-0.3099111678242683,-0.4806915128558874
1701290747427937300,9.325937255859374,-2.142927390217781,-0.07642156090140342,-0.678603025919199
1701290747438012400,9.336012451171875,-2.171086732253432,0.21089257518947124,-0.5551984723076224
1701290747448087300,9.34608740234375,-2.0926339577853676,0.555493948122859,-0.2203138990074396
1701290747458163200,9.3561630859375,-2.1360276938319207,1.045263085925579,0.11627689368873834
1701290747468238300,9.36623828125,-2.319229713541269,1.5701152275472878,0.17852029163390398
1701290747478313200,9.376313232421875,-2.499064887166023,1.9644652585119007,-0.13738251782059668
1701290747488389400,9.386389404296875,-2.889503882166743,2.244107544800639,-0.6637579234868287
1701290747498464300,9.39646435546875,-2.973616582092643,2.739551805630326,-1.0152958176851272
1701290747508539100,9.4065390625,-2.8068682690560816,3.1301112121403216,-0.8883271418511867
1701290747518614300,9.4166142578125,-2.5958511907041073,3.5143197883188724,0.21018968761712312
1701290747528690400,9.4266904296875,-2.0997721391022206,4.159478809797764,2.4320634810388086
1701290747538765300,9.436765380859375,-1.5866694719851016,4.629673478558659,5.052308523765206
1701290747548840200,9.446840087890624,-0.18795301362872122,3.688006376186013,5.993108780175447
1701290747558915300,9.456915283203125,2.2824796532928944,0.660751142886281,4.069824842357635
1701290747568991200,9.4669912109375,4.044346702229976,-1.6482055984437465,1.6621245259419082
1701290747579066400,9.47706640625,3.493704870313406,-1.7945435761362314,-0.05390227057933807
1701290747589141200,9.487141357421875,0.9917688116252422,0.2705611542105675,-0.401267263007164
1701290747599217400,9.497217529296876,-1.7170646151363849,4.586423534896969,1.7978589842945336
1701290747609292300,9.507292236328125,-4.345079707342386,7.3014546472549435,4.4692426781058305
1701290747619367400,9.517367431640626,-5.033396318024397,6.683695089355111,5.724352629560232
1701290747629442300,9.5274423828125,-0.9477239181935787,3.0991806518256664,4.37013932979703
1701290747639518200,9.537518310546876,1.5777473298609255,0.11586918967068195,2.489768066510558
1701290747649593300,9.54759326171875,1.7432757457137107,-1.0351280608803033,0.8350602465659379
1701290747659668200,9.557668212890626,2.3408201985806225,-1.0116378796994685,-0.6137298639923334
1701290747669743400,9.567743408203125,3.504286470082402,0.0686281305462122,-1.3802829760432243
1701290747679819300,9.5778193359375,4.427445271340012,1.072260982966423,-2.1665245389044285
1701290747689894100,9.58789404296875,5.051871301391721,1.6121493656784296,-2.7733804254740475
1701290747699969300,9.59796923828125,5.742766822651029,1.9946745188146828,-2.909247278034687
1701290747710044400,9.60804443359375,6.264170869645476,2.1107927148103713,-2.8120436258673664
1701290747720120000,9.6181201171875,5.885165122807026,1.9864111328601837,-2.5331197169810533
1701290747730195200,9.6281953125,4.129419187098741,1.7778519690543413,-1.7173808414787053
1701290747740270300,9.638270263671876,1.7789982164800167,1.5213193401962517,-0.5033516729533672
1701290747750346200,9.64834619140625,-1.8418682218909264,1.0799760873883961,0.9450862631663679
1701290747760421400,9.65842138671875,-7.76329240655899,0.06004968729317188,2.85065275798589
1701290747770496300,9.668496337890625,-8.185111459207535,-1.0488912132948636,2.749550052553415
1701290747780571100,9.678571044921876,-3.504168981182575,-1.5873428412020205,0.9321870341047644
1701290747790647300,9.688647216796875,-0.5534896956283599,-1.164250115355849,-0.18346563908159733
1701290747800722400,9.698722412109374,0.30525128625445064,-0.46989597807526584,-1.1700760450303553
1701290747810797300,9.70879736328125,0.3849917624454945,0.09086509679555893,-1.8506372192800045
1701290747820873200,9.718873291015624,0.19209486267380416,0.3149035692840814,-1.9299656075388192
1701290747830948400,9.7289482421875,0.3016646599393338,0.3178869690090418,-1.5924857570484279
1701290747841023200,9.739023193359374,0.5347440055608749,0.18302374053299425,-1.227669863604009
1701290747851098400,9.749098388671875,0.5446901569705456,-0.13036474801301956,-0.8736305079787969
1701290747861174300,9.75917431640625,0.3651928369980305,-0.3549906650006771,-0.3858914146989584
1701290747871249200,9.769249267578125,0.02152224210873246,-0.5421043051958084,0.06120382576435804
1701290747881324300,9.77932421875,-0.5543791187487542,-0.7658060930758714,0.49466567767262454
1701290747891399400,9.7893994140625,-1.3108150336720048,-1.0447510447502135,0.9924980026826262
1701290747901475000,9.79947509765625,-1.9731787263214586,-1.4098258813917637,1.4561305364489554
1701290747911550200,9.80955029296875,-2.2658804006695745,-1.8922920027047394,1.523381533423066
1701290747921625300,9.819625244140624,-2.230154276641458,-2.309200486958027,1.2500456538021563
1701290747931700200,9.8297001953125,-2.1924270419239997,-2.61611831818521,0.8072203457430005
1701290747941776400,9.8397763671875,-2.3033353943169117,-2.653237211745977,0.585363893468678
1701290747951851300,9.849851318359375,-2.267501864391565,-2.313959664183855,0.49780134534984827
1701290747961926100,9.859926025390624,-2.210077264904976,-2.0393477732777594,0.24895137994885444
1701290747972002300,9.870002197265626,-1.9732745879113673,-2.063862621331215,-0.35949469842165704
1701290747982077400,9.880077392578125,-1.6454080766797066,-2.1972370725542305,-0.9734013802856206
1701290747992152300,9.89015234375,-1.843081543203443,-2.1506138530671595,-1.1244257622286677
1701290748002227200,9.900227294921875,-2.3631200009331104,-1.5390876365989445,-0.39893443614542484
1701290748012303400,9.910303466796876,-1.8587609045028686,-0.3175754188418388,0.4592331297636032
1701290748022378200,9.920378173828125,-0.01673734591975808,0.39107086316347117,-0.07295125444233418
1701290748032453400,9.930453369140626,0.8027741069238632,0.18194295955896375,-1.0838345163822174
1701290748042528500,9.940528564453125,0.6841267577767371,-0.3891717515438795,-1.5770605166405438
1701290748052604200,9.950604248046876,0.40636085981912906,-1.0303829121798276,-1.8835148220092057
1701290748062679300,9.96067919921875,-0.8769255309361964,-1.7479063281238079,-1.8945441655457018
1701290748072754400,9.97075439453125,-2.581082660639286,-1.959130911746621,-1.3829834671735763
1701290748082830000,9.980830078125,-2.1447674651265145,-1.4930740734428167,-1.2125035663932562
1701290748092905200,9.9909052734375,0.32072474971823395,-0.884158331733942,-1.6875334002256392
1701290748102980400,10.00098046875,1.6602666231155394,-0.57261284070611,-1.8570941403344272
1701290748113055500,10.011055419921876,1.556226402926445,-0.6136807641535997,-0.977089713409543
1701290748123131400,10.02113134765625,1.2291641938149929,-0.8100415406435728,0.4022551050007343
1701290748133206300,10.031206298828126,0.34627076745033264,-0.989952702113986,1.6758227964267134
1701290748143281400,10.041281494140625,-0.8875614181756972,-1.1642846021473408,2.752312503004074
1701290748153356300,10.051356201171876,-0.9867267258048057,-1.3736913226932286,3.208793411450088
1701290748163432400,10.061432373046875,-0.5112952523689717,-1.492051160135865,3.2470009770303965
1701290748173507300,10.07150732421875,-0.8637409821271896,-1.6388538327306508,3.2837264873594045
1701290748183582200,10.081582275390625,-0.9858791690647601,-1.7111936772763727,3.050432110747695
1701290748193658400,10.091658447265624,-1.2932874141573905,-1.2118430566579104,1.967118987891078
1701290748203733500,10.1017333984375,-1.3775871610879897,-0.19494389542937277,0.5553507402598857
1701290748213808600,10.11180859375,-1.669540647417307,0.14228665647506714,-0.09506137944161891
1701290748223883300,10.12188330078125,-0.9882266089737415,-0.19168226328492163,-0.24694939247667788
1701290748233959400,10.13195947265625,-0.20094518167078493,-0.6479600503742694,0.14836393056213854
1701290748244034600,10.14203466796875,-0.6950625778108834,-0.6193173087358474,1.1306886220157146
1701290748254109400,10.152109375,-1.2829139041811226,-0.496106524130702,2.443525370773673
1701290748264184600,10.1621845703125,-1.5702981828987597,0.0169575645416975,3.757871939572692
1701290748274260500,10.172260498046874,-0.6846458132147789,0.7892378220677375,4.263633011755347
1701290748284335400,10.18233544921875,-0.4099713784664869,1.5493834051638842,4.136444555690884
1701290748294410500,10.192410400390624,-0.6348609148263931,2.6129578083276748,3.433870871597528
1701290748304485400,10.2024853515625,-0.2132557971894741,3.837520061305165,2.2449024945706126
1701290748314561300,10.212561279296875,0.0011609335381537675,5.356974776673317,1.269879066041112
1701290748324636400,10.222636474609375,-0.22876491648852823,7.310421797564626,0.7719213610857725
1701290748334711300,10.232711181640624,-0.44112420322969553,9.705630004414916,0.43796062463223934
1701290748344787500,10.242787353515626,-0.530705105433613,11.475272948050499,0.00028758476972579955
1701290748354862300,10.2528623046875,-0.8442728960692882,10.786175416123866,-0.9506143789380789
1701290748364937200,10.262937255859375,-1.0456897869050503,7.0569164075732225,-1.537014921978116
1701290748375012400,10.273012451171875,-0.8887544273525476,3.695750122180581,-1.2773621152728796
1701290748385088500,10.283088623046876,-0.6595511194467544,2.2424153539299962,-0.9776485163360834
1701290748395163600,10.29316357421875,-0.4117990322850644,1.799318535453081,-1.0816413902521134
1701290748405238300,10.30323828125,-0.2120312238305807,2.0391385144412517,-1.4780617977499961
1701290748415313400,10.3133134765625,-0.4607131391882896,2.937937950468063,-1.7911597789168356
1701290748425389600,10.3233896484375,-0.9394440194956958,3.7521769428014755,-1.5093208593666552
1701290748435464400,10.33346435546875,-1.198822247043252,3.670954703620076,-0.6802379336446523
1701290748445539600,10.34353955078125,-1.0194676965422929,2.774593308395147,0.06634440352320671
1701290748455615500,10.353615478515625,-0.45138227013275023,1.7164315779298542,0.24268998146653173
1701290748465690400,10.3636904296875,0.3079169252671301,0.821563051611185,-0.08080372150838375
1701290748475765500,10.373765625,0.7578887440800667,0.12170213360786437,-0.6237094062149524
1701290748485840400,10.38384033203125,0.9459130693793296,-0.2968617166370153,-1.3574439522475004
1701290748495916300,10.393916259765625,1.073114969447255,-0.5125368499279022,-2.1585013914465905
1701290748505991400,10.403991455078126,1.3161591711789369,-0.6732645875006914,-2.979151419866085
1701290748516066300,10.41406640625,1.5352122564703226,-0.7095236493617296,-3.747227795961499
1701290748526141400,10.424141357421876,1.6995038240045308,-0.7788257336467505,-4.391128341811895
1701290748536217300,10.43421728515625,1.8287284620717166,-0.9645207392156123,-4.948467625540495
1701290748546292200,10.444292236328126,2.028770265161991,-1.323662094154954,-5.325650248605013
1701290748556367400,10.454367431640625,2.2674846209958193,-1.7383990795880555,-5.6871554100662465
1701290748566443500,10.464443603515624,2.4500819528102875,-2.0607897897571323,-5.957509059005975
1701290748576518700,10.4745185546875,2.4637241091936826,-2.3189982428729534,-6.130266257068515
1701290748586593300,10.48459326171875,2.299884084819257,-2.4493629908859726,-6.17223726683557
1701290748596668400,10.49466845703125,2.1876006446808574,-2.396441548037529,-6.051491411039233
1701290748606744600,10.50474462890625,2.1021236706644295,-2.131854792061448,-5.8326277108401055
1701290748616819500,10.5148193359375,1.972068426991999,-1.7791197970330714,-5.665829128921032
1701290748626894600,10.52489453125,1.9050971237421035,-1.4505840082377195,-5.421006227079033
1701290748636969200,10.53496923828125,1.6609680493831633,-1.284640581843257,-4.943939334461093
1701290748647045400,10.54504541015625,1.3197569034099579,-1.2514198647648096,-4.225517508372664
1701290748657120500,10.55512060546875,1.0650117424905299,-1.3742618160575628,-3.50302156471312
1701290748667195400,10.5651953125,0.929369638596475,-1.5464935289412736,-2.857311923614144
1701290748677271300,10.575271240234375,0.9515398232199251,-1.725643058389425,-2.2674305527210232
1701290748687346400,10.585346435546874,1.1361163461528718,-1.9725176320642233,-1.5582447570115328
1701290748697421300,10.59542138671875,1.4227591588534414,-2.085406929141283,-0.760471161788702
1701290748707496400,10.605496337890624,1.8103465638153253,-2.0856442450284955,0.2220043363124132
1701290748717572400,10.615572265625,2.1212575563319027,-1.9447586875230072,1.0407932470351458
1701290748727647200,10.625647216796875,1.7711071709692476,-1.5318898340493439,1.5964327411085366
1701290748737722400,10.635722412109375,0.434292749774456,-1.3040940548539162,2.3386814329862595
1701290748747797500,10.645797607421875,-0.8865921347521245,-1.5907330681622027,3.975667133757472
1701290748757873400,10.655873291015626,-1.355325644919276,-2.4966502272397277,5.818569959393144
1701290748767948300,10.6659482421875,-1.1340267534624784,-3.47266032871902,6.513473547250032
1701290748778023400,10.6760234375,-0.7405074011683463,-4.330475427928567,6.408809642204642
1701290748788098300,10.686098388671875,-0.2770749930839985,-4.6833244047254325,5.885822125411034
1701290748798174500,10.696174560546876,0.015061448596790433,-4.020571858888864,4.998508544516563
1701290748808249600,10.70624951171875,-0.0021994828056544065,-2.4678695384353397,3.7203620008677243
1701290748818324200,10.71632421875,-0.540917141237855,-0.9379717549860477,2.401040274004638
1701290748828400400,10.726400390625,-1.663646913203597,0.3781447460949421,1.519403277441859
1701290748838475500,10.7364755859375,-2.9829116491824386,1.3920476481169461,0.9467077268883586
1701290748848550400,10.74655029296875,-4.104332676637172,1.8491455194175241,0.44014293710738417
1701290748858625500,10.75662548828125,-4.894281861844658,1.6072294449329376,0.21336276469528673
1701290748868701400,10.766701416015625,-4.845428691348433,0.9607996728658675,0.6513914861276745
1701290748878776300,10.7767763671875,-4.38043217575252,1.0946002405464648,1.2588909312978387
1701290748888851500,10.7868515625,-3.428996543559432,2.271258002054691,2.0964719285130498
1701290748898927400,10.79692724609375,-3.4877766493082043,3.476998065662384,3.178092568238079
1701290748909002200,10.807002197265625,-4.518017522668838,4.423822404667735,4.707382741183042
1701290748919077400,10.817077392578126,-5.0352738023340695,4.768682136276364,6.500746167623996
1701290748929152500,10.827152587890625,-3.1370529941022394,4.670250403618812,7.656617161691188
1701290748939228400,10.837228515625,0.4158838173806667,3.4972605169683693,6.584155103194713
1701290748949303300,10.84730322265625,2.966746696323156,1.122867719131708,3.2023446737021204
1701290748959378400,10.85737841796875,3.76930694130063,-0.3763531865030527,-0.09727730192542075
1701290748969453300,10.867453369140625,3.275134600102901,-0.6898521496862172,-2.2512685224711895
1701290748979529500,10.877529541015624,2.4206033448696136,0.4027262296438217,-3.326851927858591
1701290748989604400,10.887604248046875,0.48386491872761395,4.091864240208268,-2.6155916639626025
1701290748999679200,10.89767919921875,-7.739515225130319,8.976570464456081,-2.4427280829161404
1701290749009755400,10.90775537109375,-11.266037492418288,11.78157878485918,-1.8616273998498916
1701290749019830500,10.91783056640625,-2.9249755930423733,8.79831466897726,-0.47720308621823787
1701290749029905400,10.927905517578125,3.8598131416559216,2.5929975548386572,-0.7278641926944256
1701290749039980300,10.937980224609374,6.046681380409002,-0.8666647606194019,-0.5682511383652686
1701290749050056400,10.948056396484375,6.277687938344478,-2.5021447330027815,-0.502467875856161
1701290749060131300,10.95813134765625,5.799343280875682,-3.584032791492343,-0.19022095856070517
1701290749070206500,10.96820654296875,5.364282469338178,-3.3575825816869735,0.18305939636826515
1701290749080281600,10.978281494140624,5.165969389736652,-1.2107049925386906,0.49877428203523155
1701290749090357200,10.988357177734375,4.937375738161802,1.199616612291336,0.4512690190166235
1701290749100432400,10.998432373046874,4.0415386590719224,2.4945523781776426,0.04667816454470158
1701290749110507500,11.008507568359375,2.427117256808281,2.545503397735953,-0.36917116604447364
1701290749120583700,11.018583740234375,0.10771795885376631,1.7940251052200793,-0.420040352538228
1701290749130658600,11.028658447265625,-3.223168266022205,1.0399942056119442,-0.26206279045641423
1701290749140733700,11.038733642578125,-5.199571215087175,0.7466349441379309,-0.7094131747245788
1701290749150808600,11.04880859375,-4.0396705271124835,0.8288444407910108,-1.4963602555066347
1701290749160884700,11.058884765625,-2.133221988761425,0.9693693482905625,-2.0601438930690286
1701290749170959600,11.068959716796876,-1.1042822611272334,0.9009048838734626,-2.4495354248434302
1701290749181034500,11.079034423828125,-0.7227719110567122,0.7076496721833944,-2.41283329539001
1701290749191109600,11.089109619140626,-0.44885677024312315,0.5220072735846042,-2.0378014206185937
1701290749201185800,11.099185791015625,0.03563230826482176,0.19647826538980007,-1.4507573189780114
1701290749211260700,11.1092607421875,0.4395908561825752,-0.2883843956708908,-0.7821329584985971
1701290749221335600,11.11933544921875,0.4830056350171566,-0.7933803286999463,-0.1458151228621602
1701290749231410700,11.12941064453125,0.39108964092917736,-1.042887004444003,0.36982407699525355
1701290749241486800,11.13948681640625,0.26891864770054813,-1.2079711836606264,0.7596914095878601
1701290749251561700,11.149561767578126,0.10031440459899604,-1.38961603705585,1.0730109245508908
1701290749261636600,11.15963671875,-0.21073884593248365,-1.5688438924372194,1.3543138375282286
1701290749271712800,11.169712646484374,-0.5110685309410095,-1.7146563849508762,1.486012464493513
1701290749281787600,11.17978759765625,-0.7324854227542876,-1.9375649766266345,1.426462835676968
1701290749291862800,11.18986279296875,-1.0564227778434754,-2.161650210866332,1.1632353853553532
1701290749301937700,11.199937744140625,-1.531477746117115,-2.2020248913526532,0.6438780417576432
1701290749312013600,11.210013671875,-1.754940464544296,-1.8196072902441023,0.042030923260748386
1701290749322088700,11.220088623046875,-1.4033435336351394,-1.2551198883265255,-0.46773441612720484
1701290749332163600,11.23016357421875,-0.9529273320555687,-0.9256804286897182,-0.6971341233879328
1701290749342238700,11.24023876953125,-0.9944975059367716,-0.7147147882640361,-0.6613330344274639
1701290749352314600,11.250314697265624,-1.6024235059559344,-0.5847042605161666,-0.651304684627056
1701290749362389500,11.260389404296875,-2.4938591352164745,-0.47815644142031666,-0.7611047835171222
1701290749372464600,11.270464599609374,-3.0453543690919873,-0.5535802234560251,-1.053092756637931
1701290749382540800,11.280540771484375,-2.4395406850516794,-0.9177578189969062,-1.639983713543415
1701290749392615700,11.29061572265625,-1.0721919363182038,-1.2607277913361787,-2.1030147742852567
1701290749402690600,11.300690673828125,-0.09952077000327408,-1.390582251739502,-2.0055334742203352
1701290749412765700,11.310765625,0.359811801546812,-1.197223579674959,-1.2157213593959808
1701290749422841900,11.320841796875,0.4159236379344016,-1.0379781896144151,-0.3938280529171228
1701290749432916700,11.330916748046874,0.17366963673233984,-1.4615519769757985,-0.1023489061012864
1701290749442991600,11.34099169921875,-0.9301578663647174,-2.381079728254676,-0.046124622315168375
1701290749453066500,11.35106640625,-2.561367906343937,-3.0496342383682724,-0.1736240440249443
1701290749463142700,11.361142578125,-1.3096528580248354,-2.483477441933751,-0.8419508828625083
1701290749473217800,11.3712177734375,1.2305541868686676,-1.0301982032626866,-1.3527303677290676
1701290749483292700,11.381292724609375,1.7478209879279136,0.24946400564610957,-1.1907462003543972
1701290749493368600,11.39136865234375,1.040962173861265,0.4051666085332632,-0.8570449916198849
1701290749503443700,11.401443603515625,0.25766190688265483,-0.550603837993741,-0.4928364164188504
1701290749513518600,11.4115185546875,-0.876028801292181,-1.6474913126945494,0.1258420098915696
1701290749523593700,11.42159375,-1.927716951829195,-2.2084996403247117,0.5662406753256917
1701290749533669600,11.431669677734375,-1.7810159860432146,-1.9429870016753672,0.7910098001763224
1701290749543744500,11.44174462890625,-0.8097101167321205,-1.3060627245783805,1.046016534641385
1701290749553819600,11.451819580078125,-0.7676900071263313,-0.7695142999440431,1.5065478875219822
1701290749563894800,11.461894775390626,-1.8126929808109997,-0.5656874253571034,2.17931563141644
1701290749573970400,11.471970458984375,-1.5697779584169387,-0.4423743494212627,2.522746791526675
1701290749584045600,11.482045654296876,-0.6326221959888935,0.4826519992738962,2.6685820803940294
1701290749594120700,11.49212060546875,-0.8539175072491169,1.8257845175743102,2.7682851481616497
1701290749604196900,11.50219677734375,-1.4227940840363502,2.42223299189806,2.6661709275990724
1701290749614271700,11.512271728515625,-1.8902157809525728,2.4446084898352622,2.6052403658181427
1701290749624346600,11.5223466796875,-1.5449211650580166,2.350124033498764,2.0965917555004356
1701290749634421500,11.53242138671875,-0.3266465409826487,2.352264552658796,1.2466291233569382
1701290749644497700,11.54249755859375,-0.07326090491339564,2.672577287510037,0.39614509768784045
1701290749654572800,11.55257275390625,0.02591711606681347,3.456803418895602,-0.12003040100336074
1701290749664647700,11.562647705078126,0.42508828357756134,4.939969846308231,-0.007089666000008582
1701290749674722600,11.57272265625,0.33528643209934234,7.126491463580727,0.560307485884428
1701290749684798700,11.582798828125,0.2852911058306694,9.307600408154725,1.1912433362215757
1701290749694873600,11.59287353515625,0.4150672403007746,10.17500634253025,1.2101461896121501
1701290749704948700,11.60294873046875,0.586260842308402,8.356872047448158,0.7092536002486943
1701290749715024600,11.613024658203125,0.5045090262949466,4.987656895634531,0.12407879961133003
1701290749725099500,11.623099609375,-0.10300400900915264,3.036875294560194,-0.16724749473035336
1701290749735174700,11.633174560546875,-0.5828840593516826,2.4885528455018995,-0.36348785971105096
1701290749745249800,11.643249755859374,-0.45623087920770045,2.473027944111824,-0.6855342864871025
1701290749755325400,11.653325439453125,-0.17301891773864625,2.6110966906309128,-1.1582464910268784
1701290749765400600,11.663400634765624,0.10000643462836742,2.525746557864547,-1.5105968706518411
1701290749775475700,11.673475830078125,0.3387444635987282,2.1825655731230973,-1.6192326019376515
1701290749785550600,11.683550537109374,0.362989847061038,1.7261194437295198,-1.5757921041399239
1701290749795626800,11.693626708984375,0.32935528848469253,1.273864336284995,-1.3993518336504698
1701290749805701600,11.70370166015625,0.5577842510171235,0.9025356999456882,-1.3015847023814915
1701290749815776500,11.713776611328125,0.8663073254838586,0.531752422529459,-1.332739134579897
1701290749825852700,11.723852783203125,0.989051953881979,0.08506897773742675,-1.527251652854681
1701290749835927800,11.733927734375,0.9568833762049674,-0.3781967685431242,-1.898300303208828
1701290749846002700,11.744002685546874,0.8440250587880611,-0.7043488770723343,-2.414336101168394
1701290749856077600,11.75407763671875,0.7753326308339834,-0.9682388829559088,-2.9996658001065253
1701290749866153700,11.76415380859375,0.9148881087794899,-1.189099894452095,-3.538763324701786
1701290749876228600,11.774228515625,1.2038020812824368,-1.4158242450237273,-3.965530355146527
1701290749886303700,11.7843037109375,1.4948232551977036,-1.6455904475092886,-4.379545456045865
1701290749896379000,11.79437890625,1.6517992390215397,-1.8595839113235473,-4.689122861871123
1701290749906454500,11.80445458984375,1.6824188336908816,-2.015963975080848,-4.866043609353899
1701290749916529700,11.81452978515625,1.6070295384466646,-1.9559388377070426,-4.919720839005708
1701290749926604800,11.824604736328125,1.3815709700271486,-1.7453309246778488,-4.8791199485480785
1701290749936680400,11.834680419921876,1.1358815144836902,-1.468835704243183,-4.579474738672375
1701290749946755600,11.844755615234375,1.0926815474435687,-1.240053836619854,-4.064716121041775
1701290749956830700,11.854830810546876,1.348867554821074,-1.1183131245672702,-3.585440320202708
1701290749966905600,11.864905517578125,1.6836353698737918,-1.0856237378865479,-3.298156579250097
1701290749976981800,11.874981689453126,1.8828496360987423,-1.0369050074249506,-3.2300773147583004
1701290749987056600,11.885056640625,1.8774638514071702,-0.9501818327397108,-3.1460663216412064
1701290749997131500,11.895131591796876,1.682300029616803,-0.9592465982049703,-2.8601883558332917
1701290750007206700,11.90520654296875,1.4277623739682137,-1.1097720907151698,-2.491099607375264
1701290750017282800,11.91528271484375,1.322893447870016,-1.3079098137497902,-2.044314455774426
1701290750027357700,11.925357666015625,1.4567898771405219,-1.5107733962625265,-1.425989080685377
1701290750037432600,11.9354326171875,1.6905992175370455,-1.7289345011502504,-0.6910632790416479
1701290750047508700,11.9455087890625,1.807224194011092,-1.9040514140814542,-0.0020586860954761505
1701290750057583600,11.95558349609375,1.722344016844034,-2.0944868921756745,0.55886780847013
1701290750067658800,11.96565869140625,1.5080587304763495,-2.550671740284562,0.99082188616395
1701290750077733600,11.975733642578126,1.335422674575448,-3.293888984933495,1.5674883861750364
1701290750087809500,11.9858095703125,1.0970264447800815,-4.253356532412767,2.294305700165033
1701290750097884700,11.995884765625,0.8324689148984848,-4.967043146672845,2.791031817498803
1701290750107959800,12.005959716796875,0.36956571832001206,-5.111791224825382,3.2051661608636377
1701290750118034200,12.0160341796875,-0.21273506125099956,-4.624920731073618,3.5240134993374346
1701290750128109800,12.02610986328125,-0.6390759752381593,-3.628708968564868,3.6204677944421766
1701290750138185000,12.03618505859375,-0.6671434742718935,-2.427645080074668,3.4966894390821457
1701290750148260000,12.046260009765625,-0.9078519995976239,-1.414081200748682,3.114012310254574
1701290750158336300,12.056336181640624,-1.3938041363954543,-0.7430535785198211,2.4324817064508792
1701290750168411100,12.0664111328125,-2.2367770557820794,-0.3381710476249456,1.6152429477795958
1701290750178486000,12.076486083984374,-3.367650386714935,-0.35930209845900535,1.2040896660521625
1701290750188561000,12.086560791015625,-3.9965690520107744,-0.8859042986184358,1.3910843560427426
1701290750198637000,12.096636962890624,-3.9778503230154514,-1.3446458454728125,1.6699419216945766
1701290750208712200,12.106712158203125,-3.921400706040859,-1.3247329382568598,1.689652292075753
1701290750218787000,12.116787109375,-4.363397454321384,-1.0523919148921965,1.5208663357317447
1701290750228862000,12.126862060546875,-4.180962327331304,0.20709669003784656,1.7721785995930432
1701290750238938000,12.136938232421874,-3.4587685814887283,2.096496478432417,2.633770879253745
1701290750249013000,12.147012939453125,-2.9495670134633776,4.171282644838095,3.7389123875588175
1701290750259088100,12.157088134765624,-2.548708331257105,6.137330788627266,4.442771435287595
1701290750269163000,12.1671630859375,-1.2008446927815675,6.874999751499295,3.66889543300271
1701290750279239000,12.177239013671874,1.9318617965489624,5.241293803051113,1.2276005977600812
1701290750289314000,12.18731396484375,3.206741447356343,2.476440382903814,-1.224316753783822
1701290750299389200,12.19738916015625,2.7175439719617365,0.7771352963417768,-2.162851403349638
1701290750309464800,12.20746484375,0.7365829212009907,3.7565970973312854,-0.6494751311123371
1701290750319540000,12.2175400390625,-5.074862300878763,9.302683410018682,4.439700941801071
1701290750329615000,12.227614990234375,-10.523841992032528,11.457279026198387,9.564871872681378
1701290750339690000,12.23768994140625,-5.91001723999083,7.426877847212553,8.302367719322442
1701290750349766100,12.24776611328125,2.684494519796967,1.1690630685955286,2.286633265841007
1701290750359841000,12.257841064453125,2.315335628712177,-1.5058973146587609,-0.7899339876383542
1701290750369916000,12.267916015625,1.8405366810262203,-1.6071031882047653,-2.462298460304737
1701290750379992000,12.277991943359375,3.92854180996716,-1.0784323650777339,-2.4705039785921574
1701290750390067200,12.288067138671876,5.247944493111968,-0.8136158919990062,-2.598712425354123
1701290750400142000,12.29814208984375,6.212458218064904,0.26964930006265636,-2.718255919623375
1701290750410217000,12.308217041015626,7.44726597072482,1.9703496403753755,-2.833024454575777
1701290750420293000,12.318293212890625,8.261331944578886,3.5706741282254457,-2.5825486415386196
1701290750430368000,12.328367919921876,7.801834610921144,4.399449010911583,-1.9407488673597573
1701290750440443100,12.338443115234375,6.007298049047589,3.354692705464363,-1.4428274027615784
1701290750450518000,12.34851806640625,3.776977037537098,1.7331681931972502,-1.2232447406381368
1701290750460594000,12.358593994140625,0.9495838668465614,0.655859279191494,-0.6919096667379141
1701290750470669000,12.3686689453125,-5.027953250187635,0.02980477115511894,1.5881851372450588
1701290750480744200,12.378744140625,-9.315409620600938,-0.10161796147823333,3.5613685397416353
1701290750490819800,12.38881982421875,-5.565313575726747,-0.39926819814443587,1.7204273695677519
1701290750500895000,12.39889501953125,-0.6862099937915802,-0.6267471664756536,-0.10387596953809261
1701290750510970000,12.40897021484375,0.5646235955178738,-0.6901192761898041,-0.5209954661935567
1701290750521045000,12.419044921875,-0.10190550971534103,-0.6918214039325714,-0.6927502092152834
1701290750531121000,12.429120849609374,-1.0267875180363655,-0.6385410646438598,-0.7207143209397793
1701290750541196000,12.439196044921875,-1.414478675633669,-0.5860778869569301,-0.665310998147726
1701290750551271000,12.44927099609375,-1.0994706230618059,-0.4240338060885668,-0.5854349128782749
1701290750561346000,12.459345947265625,-0.4275567560503259,-0.3958504986554384,-0.34579087497889993
1701290750571422200,12.469422119140624,0.007590601259469985,-0.762291362953186,-0.14256547341644762
1701290750581496800,12.479496826171875,-0.010230375178530812,-1.3579507327258586,-0.08832710275053977
1701290750591572000,12.489572021484374,-0.35673487831950185,-2.0146809495329854,0.0015875614523887633
1701290750601648000,12.499648193359375,-0.7984838623840361,-2.483341248333454,0.34153906275331974
1701290750611723000,12.509722900390624,-1.273476798272133,-2.6364251931548117,0.9262246185690164
1701290750621798100,12.519798095703125,-1.6879893272995947,-2.4630279436230658,1.5211059897065162
1701290750631873000,12.529873046875,-2.255003617346287,-2.321376662442088,1.7919950606971977
1701290750641949000,12.539948974609375,-3.062983549284935,-2.4492928482592102,1.4125865782767533
1701290750652024000,12.550024169921874,-3.30387671046257,-2.2021809586971997,0.743040719038248
1701290750662099200,12.56009912109375,-2.5015993740797042,-1.342802263432741,0.10969546947181225
1701290750672174000,12.570174072265624,-1.584876158827543,-0.303152925735712,-0.35220834080576896
1701290750682250000,12.58025,-1.1409072336912154,0.19597031586766242,-0.7215180385380983
1701290750692325000,12.5903251953125,-1.0269044224143027,-0.18619535630643366,-1.3880337363004684
1701290750702400000,12.60039990234375,-1.2432219452619553,-0.933351693969965,-2.1325410207599402
1701290750712476000,12.610475830078125,-1.9333669404149054,-1.8413363069713116,-2.8892513687103984
1701290750722551000,12.620551025390625,-2.213511915528774,-2.460946461173892,-3.050004825246334
1701290750732626000,12.6306259765625,-1.1973393150091172,-2.398450549772382,-2.8256378514558076
1701290750742701000,12.640701171875,-0.030309761535190043,-2.0445359895706177,-2.8010347405970095
1701290750752777200,12.650777099609375,0.4133025687158107,-1.5931863065332172,-2.4221622647494074
