time,seconds_elapsed,z,y,x
1701290738115866600,0.01386669921875,0.014021276496350765,0.003632285399362445,-0.0402347706258297
1701290738125941800,0.023941650390625,0.023138875141739845,0.010004164651036263,-0.0362837053835392
1701290738136016600,0.0340166015625,0.023861391469836235,0.0012114719720557332,-0.043122969567775726
1701290738146092500,0.044092529296875,0.015428757295012474,-0.012227904051542282,-0.03900305926799774
1701290738156167700,0.054167724609375,0.010145844891667366,-0.011326423846185207,-0.04487825930118561
1701290738166242600,0.06424267578125,0.011778362095355988,-0.010112821124494076,-0.05197504907846451
1701290738176318700,0.074318603515625,0.017126522958278656,-0.006872020661830902,-0.05946971848607063
1701290738186393900,0.084393798828125,0.02154124528169632,0.0023249397054314613,-0.06897187978029251
1701290738196468700,0.09446875,0.025481391698122025,0.021022461354732513,-0.09720724076032639
1701290738206543600,0.104543701171875,-0.035773977637290955,0.07301828265190125,-0.14652977883815765
1701290738216619800,0.114619873046875,-0.2547153830528259,0.043475303798913956,-0.2169930338859558
1701290738226695000,0.12469482421875,-0.37063106894493103,0.07805698364973068,-0.2518250346183777
1701290738236769800,0.134769775390625,-0.3453504741191864,0.1133904755115509,-0.269616037607193
1701290738246844700,0.1448447265625,-0.31187665462493896,0.16303525865077972,-0.3402443826198578
1701290738256920800,0.1549208984375,-0.31654226779937744,0.11587999761104584,-0.40621036291122437
1701290738266995700,0.16499560546875,-0.30973708629608154,0.09684452414512634,-0.403847873210907
1701290738277070800,0.17507080078125,-0.28526848554611206,0.09724612534046173,-0.3772263824939728
1701290738287146800,0.185146728515625,-0.2607450485229492,0.08563447743654251,-0.35689207911491394
1701290738297221600,0.1952216796875,-0.234723299741745,0.04849589616060257,-0.3552912473678589
1701290738307296800,0.205296875,-0.22114649415016174,0.047389354556798935,-0.3800051212310791
1701290738317371600,0.21537158203125,-0.22283121943473816,0.08457666635513306,-0.3849292993545532
1701290738327447600,0.225447509765625,-0.23826369643211365,0.14432495832443237,-0.3627382516860962
1701290738337522700,0.235522705078125,-0.24940291047096252,0.140579491853714,-0.3510688245296478
1701290738347597600,0.24559765625,-0.26274508237838745,0.1466621458530426,-0.32757627964019775
1701290738357672700,0.255672607421875,-0.2910004258155823,0.1699296534061432,-0.3180541396141052
1701290738367748900,0.265748779296875,-0.3149385154247284,0.1965213119983673,-0.3129903972148895
1701290738377823700,0.27582373046875,-0.3501436412334442,0.1949436515569687,-0.2913348972797394
1701290738387898600,0.285898681640625,-0.38280224800109863,0.2065150886774063,-0.2589482069015503
1701290738397974800,0.295974853515625,-0.37804076075553894,0.19947955012321472,-0.20188891887664795
1701290738408050000,0.3060498046875,-0.39433160424232483,0.2738877534866333,-0.13691124320030212
1701290738418124800,0.316124755859375,-0.46363717317581177,0.3681766986846924,-0.14794045686721802
1701290738428199700,0.32619970703125,-0.5522501468658447,0.47728827595710754,-0.1552143543958664
1701290738438275800,0.33627587890625,-0.6491244435310364,0.5595740675926208,-0.12158369272947311
1701290738448350700,0.346350830078125,-0.7978878617286682,0.664456307888031,-0.10462867468595505
1701290738458425900,0.35642578125,-1.007865309715271,0.7659820914268494,-0.11555802077054977
1701290738468500700,0.366500732421875,-1.2494175434112549,0.8847444653511047,-0.1342957615852356
1701290738478576600,0.37657666015625,-1.379145622253418,0.9160411357879639,-0.20297734439373016
1701290738488651800,0.38665185546875,-1.4212459325790405,0.8271027207374573,-0.21249282360076904
1701290738498726700,0.3967265625,-1.469983696937561,0.7243566513061523,-0.19752666354179382
1701290738508802600,0.406802490234375,-1.627576231956482,0.6706907749176025,-0.19416095316410065
1701290738518877700,0.416877685546875,-1.8574190139770508,0.6223783493041992,-0.2041504681110382
1701290738528952600,0.42695263671875,-2.053813934326172,0.602218747138977,-0.23492808640003204
1701290738539027700,0.43702783203125,-2.1712806224823,0.609913170337677,-0.2765200138092041
1701290738549103600,0.447103515625,-2.215942621231079,0.6060441136360168,-0.2460385262966156
1701290738559178800,0.4571787109375,-2.243614673614502,0.6477206945419312,-0.11465121805667877
1701290738569253600,0.467253662109375,-2.193310499191284,0.534529447555542,-0.0751405581831932
1701290738579328800,0.477328857421875,-2.1263184547424316,0.4958086907863617,-0.08396413922309875
1701290738589405000,0.487405029296875,-2.053990602493286,0.4987458884716034,-0.12198209762573242
1701290738599479600,0.4974794921875,-1.9074257612228394,0.6131401062011719,-0.23972390592098236
1701290738609554700,0.5075546875,-1.7097324132919312,0.6732015609741211,-0.3139169216156006
1701290738619630800,0.517630859375,-1.517220139503479,0.5662317276000977,-0.2549521327018738
1701290738629705700,0.527705810546875,-1.3331032991409302,0.49419960379600525,-0.25004953145980835
1701290738639780900,0.53778076171875,-1.1877501010894775,0.5354453325271606,-0.28051501512527466
1701290738649855500,0.54785546875,-0.8827521204948425,0.5669260025024414,-0.2438880354166031
1701290738659931600,0.557931640625,-0.4275393486022949,0.610149085521698,-0.15725433826446533
1701290738670006800,0.5680068359375,-0.21023978292942047,0.5910292267799377,-0.051953479647636414
1701290738680081700,0.57808154296875,-0.4235078692436218,0.5402624607086182,0.009159409441053867
1701290738690157600,0.588157470703125,-1.0326372385025024,0.5220187306404114,0.017532121390104294
1701290738700232700,0.598232666015625,-1.7751414775848389,0.5612409710884094,0.10391361266374588
1701290738710307600,0.6083076171875,-1.7744700908660889,0.5176538228988647,0.30932295322418213
1701290738720382700,0.6183828125,-1.3498340845108032,0.2820868194103241,0.4588533341884613
1701290738730458600,0.628458740234375,-1.0803948640823364,0.055880043655633926,0.48849430680274963
1701290738740533800,0.63853369140625,-0.7699419856071472,-0.1738136112689972,0.4091033637523651
1701290738750608600,0.648608642578125,-0.49175241589546204,-0.3139272928237915,0.3461960256099701
1701290738760684800,0.658684814453125,-0.2574344575405121,-0.43342840671539307,0.3716566562652588
1701290738770760000,0.668760009765625,-0.021814750507473946,-0.5591607689857483,0.403656929731369
1701290738780834600,0.67883447265625,0.14588290452957153,-0.6010991334915161,0.4054811894893646
1701290738790909700,0.68890966796875,0.1557251513004303,-0.5543577671051025,0.4047861099243164
1701290738800985900,0.69898583984375,-0.1983615607023239,-0.8006072044372559,0.5775549411773682
1701290738811060700,0.709060791015625,-0.5199164152145386,-0.46976402401924133,0.3450247645378113
1701290738821136000,0.719135986328125,-0.5336724519729614,0.02875708043575287,-0.11541074514389038
1701290738831210500,0.72921044921875,-0.2772925794124603,0.20521493256092072,-0.4090423583984375
1701290738841286700,0.73928662109375,0.020679978653788567,0.07326436042785645,-0.4466419517993927
1701290738851361800,0.74936181640625,0.19111350178718567,-0.17343862354755402,-0.34217384457588196
1701290738861436700,0.759436767578125,0.19811893999576569,-0.4095427691936493,-0.27498388290405273
1701290738871512600,0.7695126953125,0.14094646275043488,-0.6076934337615967,-0.28274327516555786
1701290738881587700,0.779587646484375,0.0885450467467308,-0.7331016659736633,-0.3419347107410431
1701290738891662600,0.78966259765625,0.06105802580714226,-0.7665680050849915,-0.40924981236457825
1701290738901737700,0.79973779296875,0.06461840867996216,-0.7269108891487122,-0.44982627034187317
1701290738911813600,0.809813720703125,0.09421491622924805,-0.6006003618240356,-0.43142169713974
1701290738921888800,0.819888671875,0.1343463510274887,-0.3896462917327881,-0.3480226993560791
1701290738931963600,0.829963623046875,0.18127764761447906,-0.22588585317134857,-0.27654024958610535
1701290738942039800,0.840039794921875,0.2306196242570877,-0.17261864244937897,-0.24361158907413483
1701290738952115000,0.850114990234375,0.2698168456554413,-0.1295473426580429,-0.19460144639015198
1701290738962189600,0.860189453125,0.2831574082374573,-0.1432410478591919,-0.17718623578548431
1701290738972264700,0.8702646484375,0.24972674250602722,-0.10951557755470276,-0.16084161400794983
1701290738982340900,0.8803408203125,0.17619499564170837,-0.09213685244321823,-0.1278703510761261
1701290738992415700,0.890415771484375,0.06743762642145157,-0.12862029671669006,-0.10684096068143845
1701290739002491000,0.900490966796875,-0.025046763941645622,-0.12795530259609222,-0.1374790370464325
1701290739012565500,0.9105654296875,-0.04650784656405449,-0.1069600060582161,-0.17035070061683655
1701290739022641700,0.9206416015625,-0.020383035764098167,-0.10577143728733063,-0.16490426659584045
1701290739032716800,0.930716796875,-0.006184658966958523,-0.08123919367790222,-0.13108745217323303
1701290739042791700,0.940791748046875,-0.009034241549670696,-0.027280889451503754,-0.11017177999019623
1701290739052867600,0.95086767578125,-0.012760535813868046,0.0003374225052539259,-0.12367799878120422
1701290739062942700,0.960942626953125,-0.02039049193263054,-0.010943993926048279,-0.1539251208305359
1701290739073017600,0.971017578125,-0.020566793158650398,-0.05862416326999664,-0.19002452492713928
1701290739083092700,0.9810927734375,-0.00044900894863530993,-0.12847621738910675,-0.2201203852891922
1701290739093168600,0.991168701171875,0.01570386253297329,-0.20400425791740417,-0.25522005558013916
1701290739103242800,1.00124267578125,0.029516613110899925,-0.283661812543869,-0.280380517244339
1701290739113318000,1.01131787109375,0.03640274703502655,-0.32422947883605957,-0.30177050828933716
1701290739123394000,1.02139404296875,0.03972584009170532,-0.32366836071014404,-0.2944590747356415
1701290739133469000,1.031468994140625,0.031132619827985764,-0.2964937090873718,-0.27755677700042725
1701290739143544000,1.0415439453125,0.026761306449770927,-0.28156349062919617,-0.25028735399246216
1701290739153619000,1.051618896484375,0.015919310972094536,-0.26466256380081177,-0.23630201816558838
1701290739163694800,1.06169482421875,-0.01787353865802288,-0.24120277166366577,-0.21873021125793457
1701290739173770000,1.07177001953125,-0.050758786499500275,-0.20313501358032227,-0.21518687903881073
1701290739183845000,1.08184521484375,-0.060632988810539246,-0.18910467624664307,-0.21703004837036133
1701290739193920000,1.091919921875,-0.060566939413547516,-0.1778315156698227,-0.22549571096897125
1701290739203996000,1.101995849609375,-0.06029796227812767,-0.17831194400787354,-0.23426522314548492
1701290739214071000,1.112071044921875,-0.050931625068187714,-0.18765617907047272,-0.24057692289352417
1701290739224146000,1.12214599609375,-0.0452716089785099,-0.20080581307411194,-0.24786199629306793
1701290739234221800,1.132221923828125,-0.047157127410173416,-0.20521360635757446,-0.26499173045158386
1701290739244297000,1.142296875,-0.05321661755442619,-0.21639782190322876,-0.2748933434486389
1701290739254371800,1.152371826171875,-0.055398810654878616,-0.24172981083393097,-0.2829424738883972
1701290739264447000,1.162447021484375,-0.05234096944332123,-0.253739595413208,-0.29712435603141785
1701290739274523100,1.172523193359375,-0.05000590905547142,-0.2693459987640381,-0.30292657017707825
1701290739284597800,1.18259765625,-0.042872365564107895,-0.2753008008003235,-0.3094278872013092
1701290739294673000,1.1926728515625,-0.029150161892175674,-0.2742787003517151,-0.2940260171890259
1701290739304748000,1.202748046875,-0.02117186412215233,-0.27124348282814026,-0.263081431388855
1701290739314824000,1.212823974609375,-0.02075108513236046,-0.27566540241241455,-0.21789823472499847
1701290739324899000,1.222899169921875,-0.015438344329595566,-0.26413390040397644,-0.1872260868549347
1701290739334974000,1.232973876953125,-0.0027180220931768417,-0.2331770658493042,-0.1677812784910202
1701290739345049900,1.2430498046875,0.012285960838198662,-0.18910600244998932,-0.15767298638820648
1701290739355125000,1.253125,0.02526700682938099,-0.1566077172756195,-0.13346564769744873
1701290739365200100,1.2632001953125,0.029467610642313957,-0.1326022446155548,-0.09984217584133148
1701290739375275000,1.27327490234375,0.02522199973464012,-0.10813739150762558,-0.07295596599578857
1701290739385351000,1.283350830078125,0.016869794577360153,-0.08192043006420135,-0.055878978222608566
1701290739395426000,1.293426025390625,0.025781795382499695,-0.07140147686004639,-0.06269427388906479
1701290739405501000,1.3035009765625,0.031029021367430687,-0.06912980228662491,-0.09206041693687439
1701290739415576800,1.313576904296875,0.029502764344215393,-0.10177350044250488,-0.12036050111055374
1701290739425652000,1.32365185546875,0.014417022466659546,-0.1619659960269928,-0.13718661665916443
1701290739435726800,1.333726806640625,-0.005564408842474222,-0.2094070166349411,-0.1258103847503662
1701290739445802000,1.343802001953125,-0.021347632631659508,-0.23546205461025238,-0.11807284504175186
1701290739455878100,1.353878173828125,-0.018032530322670937,-0.22316144406795502,-0.13644865155220032
1701290739465952800,1.363952880859375,-0.021697038784623146,-0.17648129165172577,-0.17388470470905304
1701290739476028000,1.37402783203125,-0.03265275061130524,-0.14099973440170288,-0.199178084731102
1701290739486103000,1.38410302734375,-0.04314081370830536,-0.1363764852285385,-0.18982400000095367
1701290739496179000,1.394178955078125,-0.06385434418916702,-0.1360688954591751,-0.17015814781188965
1701290739506254000,1.404254150390625,-0.08695247769355774,-0.09094642102718353,-0.15132907032966614
1701290739516329000,1.414328857421875,-0.11625923216342926,-0.014609835110604763,-0.15120069682598114
1701290739526404900,1.42440478515625,-0.14239975810050964,0.07478875666856766,-0.14055098593235016
1701290739536480000,1.43447998046875,-0.12830443680286407,0.14244475960731506,-0.10803991556167603
1701290739546555100,1.44455517578125,-0.09607486426830292,0.15866075456142426,-0.07138177007436752
1701290739556630000,1.454630126953125,-0.08831974118947983,0.1570034623146057,-0.022523418068885803
1701290739566706000,1.464705810546875,-0.08277930319309235,0.1499844342470169,0.026969565078616142
1701290739576781000,1.474781005859375,-0.07688306272029877,0.15740427374839783,0.06434942781925201
1701290739586856000,1.48485595703125,-0.0712163895368576,0.1830555647611618,0.08467094600200653
1701290739596931000,1.49493115234375,-0.055809736251831055,0.20554596185684204,0.07819706946611404
1701290739607007000,1.505007080078125,-0.03298697993159294,0.1851581335067749,0.05573223903775215
1701290739617081900,1.515081787109375,-0.00845713447779417,0.10700634121894836,0.0243692547082901
1701290739627157000,1.525156982421875,0.017677797004580498,0.02539963275194168,-0.012822587974369526
1701290739637233000,1.53523291015625,0.041315481066703796,-0.009551960043609142,-0.05037102848291397
1701290739647307800,1.545307861328125,0.06127187982201576,-0.004847219679504633,-0.07597971707582474
1701290739657383000,1.5553828125,0.059117913246154785,0.04205237701535225,-0.07615415751934052
1701290739667458000,1.5654580078125,0.031154457479715347,0.04613899812102318,-0.05203976482152939
1701290739677534000,1.575533935546875,0.007428355049341917,-0.025349831208586693,-0.021673336625099182
1701290739687608800,1.58560888671875,-0.0016136092599481344,-0.09713959693908691,-0.016243951395154
1701290739697684000,1.59568408203125,-0.015397331677377224,-0.12705035507678986,-0.04531554877758026
1701290739707758800,1.6057587890625,-0.032655682414770126,-0.1266394406557083,-0.09242767095565796
1701290739717835000,1.6158349609375,-0.05844173952937126,-0.13705798983573914,-0.14261627197265625
1701290739727910100,1.62591015625,-0.06912367790937424,-0.1740809828042984,-0.17934738099575043
1701290739737984800,1.63598486328125,-0.059793293476104736,-0.21463267505168915,-0.21195966005325317
1701290739748061000,1.64606103515625,-0.03821343183517456,-0.2560381591320038,-0.2658524513244629
1701290739758136000,1.656135986328125,-0.02635863609611988,-0.29953476786613464,-0.3189292550086975
1701290739768211000,1.6662109375,-0.02261796034872532,-0.35272103548049927,-0.36222559213638306
1701290739778286000,1.6762861328125,-0.008790828287601471,-0.3981556296348572,-0.3783595561981201
1701290739788362000,1.686362060546875,-0.0014298511669039726,-0.4190577268600464,-0.38469094038009644
1701290739798436900,1.696436767578125,0.0002641855680849403,-0.4149705767631531,-0.3749712109565735
1701290739808512000,1.706511962890625,-0.014123275876045227,-0.4116634428501129,-0.3445107638835907
1701290739818587100,1.716587158203125,-0.04035754129290581,-0.4361528158187866,-0.27904096245765686
1701290739828662800,1.726662841796875,-0.04851533845067024,-0.44440194964408875,-0.18888549506664276
1701290739838738000,1.736738037109375,-0.04971509054303169,-0.3783065676689148,-0.11736231297254562
1701290739848813000,1.74681298828125,-0.04328515753149986,-0.29797255992889404,-0.08308690041303635
1701290739858889000,1.756888916015625,-0.0287589430809021,-0.2703332304954529,-0.07708839327096939
1701290739868963800,1.7669638671875,-0.012852681800723076,-0.29688918590545654,-0.08460782468318939
1701290739879039000,1.7770390625,0.01583142764866352,-0.32809585332870483,-0.10533148050308228
1701290739889113900,1.78711376953125,0.05126691609621048,-0.32181185483932495,-0.13557620346546173
1701290739899190000,1.79718994140625,0.08228688687086105,-0.24576716125011444,-0.139517143368721
1701290739909265200,1.80726513671875,0.10155059397220612,-0.13108184933662415,-0.09982965886592865
1701290739919339800,1.81733984375,0.11447864025831223,-0.001272990950383246,-0.022544456645846367
1701290739929415000,1.827414794921875,0.12030297517776489,0.1347048133611679,0.05318918451666832
1701290739939491000,1.837490966796875,0.13208240270614624,0.20175229012966156,0.09589989483356476
1701290739949566000,1.84756591796875,0.15041427314281464,0.152724027633667,0.09925148636102676
1701290739959641000,1.85764111328125,0.15537573397159576,0.06815028935670853,0.09164176881313324
1701290739969717000,1.867717041015625,0.14537343382835388,0.0054815844632685184,0.07022622227668762
1701290739979792000,1.8777919921875,0.12568175792694092,-0.02755599468946457,0.02526780590415001
1701290739989867000,1.887866943359375,0.1088244840502739,-0.05999915301799774,-0.01721147820353508
1701290739999942100,1.897942138671875,0.10046135634183884,-0.12216266244649887,-0.043351735919713974
1701290740010017800,1.908017822265625,0.12443114072084427,-0.23751935362815857,-0.07056284695863724
1701290740020093000,1.918093017578125,0.11730984598398209,-0.3036147356033325,-0.07635042816400528
1701290740030168000,1.92816796875,0.09668312966823578,-0.2665102481842041,-0.04125715792179108
1701290740040243000,1.938242919921875,0.09433848410844803,-0.15192748606204987,0.02948092669248581
1701290740050318800,1.94831884765625,0.11554604023694992,-0.0922689437866211,0.1415960192680359
1701290740060394000,1.95839404296875,0.1478688269853592,-0.14851783215999603,0.26903972029685974
1701290740070468900,1.96846875,0.18389979004859924,-0.2898757755756378,0.35555651783943176
1701290740080545000,1.978544921875,0.2207677960395813,-0.44281071424484253,0.4111257493495941
1701290740090620200,1.9886201171875,0.24805587530136108,-0.5234128832817078,0.4705677926540375
1701290740100694800,1.99869482421875,0.267037570476532,-0.46927428245544434,0.5154162049293518
1701290740110770400,2.0087705078125,0.30661240220069885,-0.35085204243659973,0.52989262342453
1701290740120846600,2.0188466796875,0.3560662269592285,-0.326140820980072,0.576521635055542
1701290740130921500,2.02892138671875,0.37777179479599,-0.39853566884994507,0.6355934739112854
1701290740140996400,2.038996337890625,0.351318359375,-0.4630512595176697,0.6848334670066833
1701290740151071200,2.0490712890625,0.30406826734542847,-0.46723243594169617,0.7543987035751343
1701290740161147400,2.0591474609375,0.28972530364990234,-0.36885738372802734,0.8338466286659241
1701290740171222500,2.069222412109375,0.32276687026023865,-0.2745455503463745,0.8578411936759949
1701290740181297700,2.079297607421875,0.3310844600200653,-0.18499915301799774,0.8717197179794312
1701290740191373300,2.089373291015625,0.2658703029155731,-0.06082206964492798,0.9077706933021545
1701290740201448400,2.099448486328125,0.20173178613185883,0.07194529473781586,1.0082008838653564
1701290740211523600,2.109523681640625,0.18912145495414734,0.2145642340183258,1.1795049905776978
1701290740221598500,2.119598388671875,0.18952758610248566,0.4185839295387268,1.0493285655975342
1701290740231674400,2.12967431640625,0.07692727446556091,0.5182567238807678,0.6707448363304138
1701290740241749500,2.13974951171875,-0.12887462973594666,0.42510417103767395,0.3851144015789032
1701290740251824400,2.149824462890625,-0.31551694869995117,0.16764599084854126,0.2801560163497925
1701290740261899500,2.1598994140625,-0.4202020764350891,-0.06455022841691971,0.3335644006729126
1701290740271975400,2.169975341796875,-0.47941747307777405,-0.17300081253051758,0.4374428391456604
1701290740282050300,2.18005029296875,-0.42989838123321533,-0.27121099829673767,0.5513688921928406
1701290740292125400,2.19012548828125,-0.2847350537776947,-0.2064112275838852,0.7827515006065369
1701290740302201600,2.20020166015625,-0.09637074172496796,-0.05788274109363556,1.083770513534546
1701290740312276500,2.2102763671875,0.05323419347405434,-0.20124922692775726,1.1285903453826904
1701290740322351400,2.220351318359375,0.053772151470184326,-0.4857107698917389,0.9720910787582397
1701290740332426200,2.23042626953125,-0.10395249724388123,-0.6110316514968872,0.8926620483398438
1701290740342502400,2.24050244140625,-0.28607890009880066,-0.6204385161399841,0.8666993975639343
1701290740352577500,2.25057763671875,-0.3219234347343445,-0.5913189649581909,0.822345495223999
1701290740362652400,2.26065234375,-0.22282269597053528,-0.4559643268585205,0.8133070468902588
1701290740372727300,2.270727294921875,0.010998322628438473,-0.2274227738380432,0.9369301795959473
1701290740382803500,2.280803466796875,0.3809596002101898,0.010522149503231049,1.2287012338638306
1701290740392878600,2.290878662109375,0.8100534081459045,0.18320497870445251,1.52842116355896
1701290740402953500,2.300953369140625,1.1725610494613647,0.18198497593402863,1.655531406402588
1701290740413029400,2.311029296875,1.392507553100586,-0.057248640805482864,1.6452956199645996
1701290740423104500,2.3211044921875,1.4282405376434326,-0.41944706439971924,1.5617426633834839
1701290740433179400,2.331179443359375,1.263679027557373,-0.7370830774307251,1.4381014108657837
1701290740443254500,2.341254638671875,0.9907752871513367,-0.8828216195106506,1.291196346282959
1701290740453330400,2.351330322265625,0.7360005378723145,-0.848639726638794,1.121370553970337
1701290740463405300,2.3614052734375,0.5805115699768066,-0.6759781837463379,0.9314866662025452
1701290740473480400,2.37148046875,0.5169445872306824,-0.4399254322052002,0.7367520332336426
1701290740483555300,2.381555419921875,0.5484340786933899,-0.2691585123538971,0.5749439597129822
1701290740493631500,2.391631591796875,0.5881606936454773,-0.23066464066505432,0.47607147693634033
1701290740503706400,2.401706298828125,0.5916425585746765,-0.2214045524597168,0.4556175768375397
1701290740513781200,2.41178125,0.5927174091339111,-0.22384826838970184,0.4114735722541809
1701290740523857400,2.421857421875,0.5785091519355774,-0.21628808975219727,0.282613068819046
1701290740533932500,2.4319326171875,0.5117418169975281,-0.15424469113349915,0.17176216840744019
1701290740544007400,2.44200732421875,0.4145375192165375,-0.09470599889755249,0.1514318585395813
1701290740554082300,2.452082275390625,0.3328985869884491,-0.092333123087883,0.1482166349887848
1701290740564158500,2.462158447265625,0.2743031978607178,-0.1317516416311264,0.10264834761619568
1701290740574233600,2.472233642578125,0.22033236920833588,-0.20130595564842224,0.023754864931106567
1701290740584308500,2.48230859375,0.16320756077766418,-0.2779514491558075,-0.06377311795949936
1701290740594383400,2.49238330078125,0.12465085089206696,-0.2838599383831024,-0.13351838290691376
1701290740604459500,2.50245947265625,0.10521190613508224,-0.15849323570728302,-0.1515815407037735
1701290740614534400,2.512534423828125,0.0946309044957161,-0.008990298956632614,-0.1707320660352707
1701290740624609500,2.522609619140625,0.07545614242553711,0.08040482550859451,-0.25539180636405945
1701290740634685400,2.532685546875,0.044732850044965744,0.1740274578332901,-0.38380706310272217
1701290740644760300,2.54276025390625,0.0012343751732259989,0.26736459136009216,-0.5044309496879578
1701290740654835500,2.55283544921875,-0.07545161247253418,0.3275168836116791,-0.6042653918266296
1701290740664910300,2.562910400390625,-0.15471526980400085,0.336338073015213,-0.6758798956871033
1701290740674986200,2.572986328125,-0.24553625285625458,0.3310631513595581,-0.7324917912483215
1701290740685061400,2.583061279296875,-0.3399288058280945,0.3483808934688568,-0.796110987663269
1701290740695136300,2.59313623046875,-0.4308509826660156,0.40984025597572327,-0.8448606729507446
1701290740705211400,2.60321142578125,-0.5085588097572327,0.5203470587730408,-0.8457176685333252
1701290740715287600,2.61328759765625,-0.5697332620620728,0.6252172589302063,-0.7496728897094727
1701290740725362400,2.623362548828125,-0.6083663702011108,0.6801047325134277,-0.5796180963516235
1701290740735437300,2.633437255859375,-0.6166594624519348,0.6831652522087097,-0.4145926535129547
1701290740745513500,2.643513427734375,-0.6018515229225159,0.6668001413345337,-0.3443829417228699
1701290740755588600,2.653588623046875,-0.5679545402526855,0.6507777571678162,-0.3628610074520111
1701290740765663500,2.66366357421875,-0.5284885764122009,0.6133174896240234,-0.44352656602859497
1701290740775738400,2.67373828125,-0.500236988067627,0.5499475598335266,-0.5695881247520447
1701290740785814500,2.683814453125,-0.4909396171569824,0.46160250902175903,-0.7398114800453186
1701290740795889400,2.693889404296875,-0.4932597875595093,0.35287895798683167,-0.9080106019973755
1701290740805964500,2.703964599609375,-0.49402862787246704,0.24307788908481598,-1.0015666484832764
1701290740816039400,2.714039306640625,-0.48046356439590454,0.15717417001724243,-0.9726223945617676
1701290740826115300,2.724115234375,-0.4329783320426941,0.09242207556962967,-0.8510189652442932
1701290740836190500,2.7341904296875,-0.3701983094215393,0.08542275428771973,-0.7097353339195251
1701290740846265300,2.744265380859375,-0.29767483472824097,0.12247904390096664,-0.6140426397323608
1701290740856341200,2.75434130859375,-0.22627361118793488,0.1789521723985672,-0.5537720918655396
1701290740866416400,2.76441650390625,-0.1591305285692215,0.20646928250789642,-0.5243766903877258
1701290740876491300,2.7744912109375,-0.08561769872903824,0.18663698434829712,-0.5403881669044495
1701290740886566400,2.78456640625,-0.003969974350184202,0.14178749918937683,-0.5812250375747681
1701290740896642600,2.794642578125,0.058991413563489914,0.1312488317489624,-0.646457850933075
1701290740906717400,2.804717529296875,0.10243822634220123,0.24849183857440948,-0.6465151309967041
1701290740916792300,2.814792236328125,0.14287379384040833,0.46829795837402344,-0.5803225040435791
1701290740926868500,2.824868408203125,0.1699317842721939,0.6817130446434021,-0.4713110625743866
1701290740936943600,2.834943603515625,0.16399000585079193,0.7956763505935669,-0.322478711605072
1701290740947018500,2.8450185546875,0.12917982041835785,0.7835839986801147,-0.17922860383987427
1701290740957093400,2.85509326171875,0.08249247819185257,0.7217832207679749,-0.06308069825172424
1701290740967169500,2.86516943359375,0.05241180956363678,0.6799319386482239,-0.030188528820872307
1701290740977244400,2.875244384765625,0.051186755299568176,0.6565778851509094,-0.07289710640907288
1701290740987319600,2.885319580078125,0.058987151831388474,0.6172552108764648,-0.15584605932235718
1701290740997394400,2.89539453125,0.06502986699342728,0.5787219405174255,-0.23960460722446442
1701290741007470300,2.90547021484375,0.025073660537600517,0.5877751111984253,-0.31296083331108093
1701290741017545500,2.91554541015625,-0.01822933740913868,0.6196989417076111,-0.35660845041275024
1701290741027620400,2.925620361328125,-0.005806223955005407,0.6823639273643494,-0.30226024985313416
1701290741037695500,2.935695556640625,0.11566268652677536,0.8271692991256714,-0.057307496666908264
1701290741047771400,2.945771484375,0.3024112582206726,0.9975708723068237,0.28509271144866943
1701290741057846300,2.95584619140625,0.4745723605155945,0.9925242066383362,0.3687990605831146
1701290741067921400,2.96592138671875,0.5647240877151489,0.6267755031585693,0.16109061241149902
1701290741077997600,2.97599755859375,0.5607903599739075,0.10251732170581818,-0.048479385673999786
1701290741088072400,2.986072509765625,0.44212281703948975,-0.1842404156923294,-0.001680720946751535
1701290741098147300,2.996147216796875,0.2306923270225525,-0.1214878186583519,0.2036103755235672
1701290741108222500,3.006222412109375,0.07529528439044952,-0.04581382870674133,0.3960091173648834
1701290741118298600,3.016298583984375,0.04278341680765152,-0.2682282626628876,0.46360519528388977
1701290741128373500,3.02637353515625,0.09323140978813171,-0.6114642024040222,0.3884854316711426
1701290741138448400,3.036448486328125,0.12138501554727554,-0.6060265302658081,0.2986530065536499
1701290741148524500,3.046524658203125,0.10302305221557617,-0.2625938057899475,0.243411585688591
1701290741158599400,3.056599365234375,0.08167009800672531,0.03748931735754013,0.22040560841560364
1701290741168674600,3.066674560546875,0.0897005945444107,0.14125458896160126,0.1934022158384323
1701290741178749400,3.07674951171875,0.05818900465965271,0.16428880393505096,0.11330312490463257
1701290741188825300,3.086825439453125,-0.055990565568208694,0.12693904340267181,-0.06047213077545166
1701290741198900500,3.096900390625,-0.22765633463859558,0.08099950850009918,-0.30823853611946106
1701290741208975600,3.1069755859375,-0.3963838219642639,0.14053474366664886,-0.5839750170707703
1701290741219050500,3.117050537109375,-0.4728911221027374,0.37846875190734863,-0.791032612323761
1701290741229126400,3.12712646484375,-0.4400354325771332,0.7766403555870056,-0.8786301016807556
1701290741239201500,3.137201416015625,-0.3424561619758606,1.1075927019119263,-0.8299861550331116
1701290741249276400,3.1472763671875,-0.2225574404001236,1.2324140071868896,-0.6062837839126587
1701290741259352300,3.157352294921875,-0.16344298422336578,1.0154584646224976,-0.2786766290664673
1701290741269427500,3.167427490234375,-0.20986294746398926,0.5595727562904358,-0.14292307198047638
1701290741279502300,3.17750244140625,-0.26459890604019165,0.21823592483997345,-0.3075634241104126
1701290741289577500,3.187577392578125,-0.30303069949150085,0.04403403773903847,-0.46398016810417175
1701290741299653600,3.197653564453125,-0.34584662318229675,0.010755175724625587,-0.501350998878479
1701290741309728500,3.207728515625,-0.40559276938438416,0.1297774314880371,-0.47308552265167236
1701290741319803400,3.217803466796875,-0.4521011412143707,0.30167222023010254,-0.43383294343948364
1701290741329878500,3.22787841796875,-0.4710761606693268,0.3895381689071655,-0.41506242752075195
1701290741339954400,3.237954345703125,-0.4543004035949707,0.3532336950302124,-0.4174683392047882
1701290741350029600,3.248029541015625,-0.42643681168556213,0.20013628900051117,-0.42666423320770264
1701290741360104400,3.2581044921875,-0.39539819955825806,0.026925623416900635,-0.4338667690753937
1701290741370180400,3.268180419921875,-0.3392268121242523,-0.07202225923538208,-0.42769888043403625
1701290741380255500,3.27825537109375,-0.27405524253845215,-0.07141639292240143,-0.434294730424881
1701290741390330600,3.28833056640625,-0.20415446162223816,-0.008402006700634956,-0.4391835033893585
1701290741400405500,3.298405517578125,-0.12653237581253052,0.07327021658420563,-0.40112826228141785
1701290741410481400,3.3084814453125,-0.01613049954175949,0.1017782911658287,-0.27493569254875183
1701290741420556500,3.318556640625,0.12039485573768616,0.0277410838752985,-0.0930710881948471
1701290741430631400,3.32863134765625,0.22155556082725525,-0.10112501680850983,0.05717566981911659
1701290741440706600,3.33870654296875,0.2771786153316498,-0.2542828917503357,0.1092953309416771
1701290741450782500,3.348782470703125,0.3047652244567871,-0.4571465253829956,0.1317385882139206
1701290741460857300,3.358857421875,0.2709561288356781,-0.5803672671318054,0.20587965846061707
1701290741470932500,3.368932373046875,0.18939043581485748,-0.581519603729248,0.3499841094017029
1701290741481008600,3.379008544921875,0.12928394973278046,-0.5579684376716614,0.5282372236251831
1701290741491083300,3.389083251953125,0.12926983833312988,-0.5055103302001953,0.6592644453048706
1701290741501158400,3.399158447265625,0.1376771777868271,-0.37134239077568054,0.7796058058738708
1701290741511233500,3.409233642578125,0.09065666794776917,-0.18581193685531616,0.9347583651542664
1701290741521309400,3.419309326171875,-0.0080310283228755,-0.1003846600651741,1.0886377096176147
1701290741531384600,3.429384521484375,-0.08123280107975006,-0.10095750540494919,1.1611486673355103
1701290741541459500,3.43945947265625,-0.1126256138086319,-0.08513406664133072,1.1352057456970215
1701290741551534300,3.449534423828125,-0.11604830622673035,-0.006216883193701506,1.0898048877716064
1701290741561610500,3.459610595703125,-0.09056345373392105,0.22508904337882996,1.1223013401031494
1701290741571685600,3.469685546875,-0.0351228341460228,0.4764823913574219,1.1399229764938354
1701290741581760500,3.479760498046875,0.06555797159671783,0.4455479085445404,1.0289615392684937
1701290741591836400,3.48983642578125,0.08634154498577118,0.2347925305366516,0.8624391555786133
1701290741601911600,3.49991162109375,0.043235622346401215,0.0268316138535738,0.8056719899177551
1701290741611986400,3.509986328125,0.07406437397003174,0.11895088851451874,1.018834114074707
1701290741622061600,3.5200615234375,0.21592137217521667,0.38165387511253357,1.3821898698806763
1701290741632137500,3.530137451171875,0.32471391558647156,0.3387759327888489,1.4776456356048584
1701290741642212400,3.54021240234375,0.3827841281890869,0.15790840983390808,1.4190711975097656
1701290741652287500,3.55028759765625,0.3797188401222229,0.10167789459228516,1.456702709197998
1701290741662362600,3.560362548828125,0.3769283592700958,0.1500997543334961,1.542984962463379
1701290741672438300,3.570438232421875,0.45635634660720825,0.2562671899795532,1.708032488822937
1701290741682513400,3.580513427734375,0.5907725095748901,0.3232156038284302,1.8141252994537354
1701290741692588500,3.590588623046875,0.7343024611473083,0.2778920829296112,1.8296366930007935
1701290741702664400,3.60066455078125,0.8580499887466431,0.10302891582250595,1.7885088920593262
1701290741712739600,3.610739501953125,0.9755209684371948,-0.09268732368946075,1.6930081844329834
1701290741722814500,3.620814453125,1.128162145614624,-0.11106846481561661,1.5852149724960327
1701290741732889300,3.630889404296875,1.3534640073776245,0.11799801141023636,1.4445829391479492
1701290741742965500,3.640965576171875,1.6088467836380005,0.4065549671649933,1.2147297859191895
1701290741753040600,3.65104052734375,1.7618664503097534,0.6822565793991089,1.059478998184204
1701290741763115500,3.661115478515625,1.430911660194397,0.8045593500137329,0.9577390551567078
1701290741773190400,3.6711904296875,0.8797337412834167,0.513304591178894,0.8065266013145447
1701290741783266600,3.6812666015625,0.6064481139183044,-0.07023022323846817,0.6169774532318115
1701290741793341400,3.691341552734375,0.5245508551597595,-0.5341051816940308,0.45538827776908875
1701290741803416600,3.70141650390625,0.456039160490036,-0.5859473943710327,0.3749067783355713
1701290741813492500,3.711492431640625,0.37548068165779114,-0.4028342664241791,0.30027246475219727
1701290741823567400,3.7215673828125,0.3408539891242981,-0.13020646572113037,0.18252134323120117
1701290741833642500,3.731642578125,0.35639458894729614,0.15223906934261322,0.11146261543035507
1701290741843717600,3.741717529296875,0.3897016942501068,0.27526405453681946,0.10596105456352234
1701290741853793300,3.751793212890625,0.4007090628147125,0.22518305480480194,0.0999729335308075
1701290741863868400,3.761868408203125,0.3632064461708069,0.0593075305223465,0.015270299278199673
1701290741873943600,3.771943603515625,0.2913263738155365,-0.17628341913223267,-0.16247013211250305
1701290741884018400,3.782018310546875,0.22174011170864105,-0.3489915430545807,-0.3565453290939331
1701290741894094600,3.792094482421875,0.15786978602409363,-0.4517962336540222,-0.537517249584198
1701290741904169500,3.80216943359375,0.10078173875808716,-0.49947744607925415,-0.6797471046447754
1701290741914244400,3.812244384765625,0.009553025476634502,-0.5130025744438171,-0.7851134538650513
1701290741924320500,3.822320556640625,-0.11740625649690628,-0.5248419642448425,-0.8401647210121155
1701290741934395600,3.832395751953125,-0.2609786093235016,-0.5124577283859253,-0.8481811285018921
1701290741944470500,3.842470458984375,-0.3838728368282318,-0.49266669154167175,-0.8423610329627991
1701290741954545400,3.85254541015625,-0.48132163286209106,-0.47078776359558105,-0.8609155416488647
1701290741964621600,3.86262158203125,-0.5618955492973328,-0.42058637738227844,-0.8997910618782043
1701290741974696400,3.872696533203125,-0.6344975829124451,-0.3324759602546692,-0.9520058035850525
1701290741984771600,3.882771484375,-0.6901509761810303,-0.23818886280059814,-0.9896133542060852
1701290741994846500,3.892846435546875,-0.7246306538581848,-0.15799522399902344,-1.0133527517318726
1701290742004922400,3.90292236328125,-0.749190628528595,-0.03208736330270767,-1.026838779449463
1701290742014997500,3.91299755859375,-0.7855427861213684,0.18301402032375336,-1.028700828552246
1701290742025072600,3.92307275390625,-0.8339768648147583,0.4911808967590332,-1.0108920335769653
1701290742035148300,3.933148193359375,-0.8964599370956421,0.8441280722618103,-1.011595368385315
1701290742045223400,3.943223388671875,-0.9585965871810913,1.1354554891586304,-1.0221928358078003
1701290742055298600,3.953298583984375,-1.0211422443389893,1.3034639358520508,-0.9789788126945496
1701290742065373400,3.96337353515625,-1.0945959091186523,1.3505547046661377,-0.8801044225692749
1701290742075449300,3.973449462890625,-1.1591349840164185,1.292094349861145,-0.7836178541183472
1701290742085524500,3.9835244140625,-1.1883450746536255,1.1493593454360962,-0.7486137747764587
1701290742095599400,3.993599365234375,-1.16618013381958,0.9366579651832581,-0.7616307735443115
1701290742105674800,4.0036748046875,-1.0841320753097534,0.6215093731880188,-0.8081841468811035
1701290742115751000,4.0137509765625,-0.9706284403800964,0.2620103061199188,-0.8492650389671326
1701290742125825800,4.02382568359375,-0.8338735699653625,-0.09216907620429993,-0.8616103529930115
1701290742135900700,4.033900634765625,-0.6704958081245422,-0.4164861738681793,-0.827786922454834
1701290742145976800,4.043976806640625,-0.4515855610370636,-0.6887291669845581,-0.7331634759902954
1701290742156052000,4.054052001953125,-0.1656363606452942,-0.7192398905754089,-0.6308948397636414
1701290742166126800,4.064126953125,0.11443763226270676,-0.48701706528663635,-0.491902619600296
1701290742176201700,4.07420166015625,0.28679555654525757,-0.14731435477733612,-0.35259559750556946
1701290742186278000,4.08427783203125,0.3641231060028076,0.09722615033388138,-0.2840900421142578
1701290742196352800,4.094352783203125,0.38614052534103394,0.16190288960933685,-0.29905515909194946
1701290742206428000,4.104427978515625,0.3680459260940552,0.13565850257873535,-0.357599675655365
1701290742216502800,4.114502685546875,0.31700006127357483,0.07569928467273712,-0.4095291793346405
1701290742226578700,4.12457861328125,0.24789609014987946,0.04699041321873665,-0.4052758514881134
1701290742236653800,4.13465380859375,0.19556842744350433,0.027485420927405357,-0.30184507369995117
1701290742246729000,4.14472900390625,0.14419658482074738,-0.003153448924422264,-0.17896655201911926
1701290742256804600,4.1548046875,0.0946817696094513,-0.08307357877492905,-0.19132734835147858
1701290742266879700,4.164879638671875,0.1054457351565361,-0.19597722589969635,-0.2929178774356842
1701290742276955000,4.174954833984375,0.24767211079597473,-0.25477078557014465,-0.14328552782535553
1701290742287029800,4.18502978515625,0.5433088541030884,-0.3111514747142792,0.16225361824035645
1701290742297105700,4.195105712890625,0.775120198726654,-0.40171360969543457,0.14592976868152618
1701290742307180800,4.205180908203125,0.7638755440711975,-0.5623184442520142,-0.15849430859088898
1701290742317255700,4.215255615234375,0.5514165759086609,-0.5247697830200195,-0.455777108669281
1701290742327331800,4.225331787109375,0.3783917725086212,0.16463156044483185,-0.6422247290611267
1701290742337407000,4.235406982421875,0.31045985221862793,1.0665606260299683,0.01696007512509823
1701290742347481600,4.245481689453125,0.40881893038749695,0.9036933779716492,1.5622848272323608
1701290742357556700,4.255556640625,0.2775746285915375,-0.056348495185375214,1.8384230136871338
1701290742367633000,4.2656328125,0.07359672337770462,-1.14475417137146,1.3331794738769531
1701290742377707800,4.275707763671875,-0.022852851077914238,-1.4787311553955078,0.9358060359954834
1701290742387783000,4.285782958984375,-0.002510561840608716,-1.2847163677215576,0.6405642628669739
1701290742397857800,4.29585791015625,0.15191815793514252,-1.1448159217834473,0.29309019446372986
1701290742407933700,4.30593359375,0.34125638008117676,-0.8530826568603516,-0.0820983350276947
1701290742418008800,4.3160087890625,0.36730822920799255,-0.24888917803764343,-0.41764917969703674
1701290742428084000,4.326083984375,0.2099902480840683,0.5704371333122253,-0.8076373934745789
1701290742438158800,4.336158935546875,-0.06813590973615646,1.2463455200195312,-1.2459913492202759
1701290742448234800,4.34623486328125,-0.3451603353023529,1.4785646200180054,-1.5433486700057983
1701290742458310000,4.356309814453125,-0.45084306597709656,1.6091886758804321,-1.749338150024414
1701290742468384800,4.366384765625,-0.4423547685146332,2.896953582763672,-1.4751778841018677
1701290742478460700,4.376460693359375,-0.2710131108760834,2.3676156997680664,0.2603873908519745
1701290742488535800,4.386535888671875,-0.20802058279514313,0.5525899529457092,0.7782331705093384
1701290742498610700,4.396610595703125,-0.28844591975212097,-0.4112567901611328,0.13937120139598846
1701290742508685800,4.406685791015625,-0.3666488230228424,-0.6289976239204407,-0.48795315623283386
1701290742518762000,4.416761962890625,-0.3688691258430481,-0.42616143822669983,-0.7120121121406555
1701290742528836600,4.426836669921875,-0.35815122723579407,-0.1936429738998413,-0.5918691754341125
1701290742538911700,4.436911865234375,-0.402689129114151,-0.18024086952209473,-0.42084550857543945
1701290742548988000,4.44698779296875,-0.451627641916275,-0.032942768186330795,-0.4002648591995239
1701290742559062800,4.457062744140625,-0.4742639660835266,0.27418282628059387,-0.49567633867263794
1701290742569138000,4.467137939453125,-0.48171231150627136,0.4418852627277374,-0.5789209008216858
1701290742579212800,4.477212890625,-0.45073655247688293,0.2039584517478943,-0.658629834651947
1701290742589288700,4.487288818359375,-0.3798719644546509,-0.3078627586364746,-0.7143561840057373
1701290742599363800,4.49736376953125,-0.2880461812019348,-0.8192141652107239,-0.7542487382888794
1701290742609439000,4.50743896484375,-0.20287801325321198,-1.0137416124343872,-0.7655669450759888
1701290742619513900,4.517513916015625,-0.1315913200378418,-0.8148084878921509,-0.7138336896896362
1701290742629589800,4.52758984375,-0.08188740909099579,-0.5580906867980957,-0.49842098355293274
1701290742639665000,4.537664794921875,0.006487993057817221,-0.33037471771240234,-0.13413196802139282
1701290742649739800,4.54773974609375,0.17420855164527893,-0.2038460671901703,0.28277525305747986
1701290742659815000,4.55781494140625,0.25888827443122864,-0.23510758578777313,0.5739096403121948
1701290742669890800,4.567890869140625,0.2516154646873474,-0.3067080080509186,0.6831951141357422
1701290742679965700,4.577965576171875,0.19445736706256866,-0.32711899280548096,0.719014048576355
1701290742690040800,4.588040771484375,0.09421518445014954,-0.31078317761421204,0.7542327642440796
1701290742700117000,4.598116943359375,-0.04127846285700798,-0.331595778465271,0.7797448039054871
1701290742710191600,4.608191650390625,-0.15568439662456512,-0.39592868089675903,0.8104766011238098
1701290742720266800,4.618266845703125,-0.22757084667682648,-0.44825422763824463,0.8202354907989502
1701290742730342000,4.628341796875,-0.25902169942855835,-0.44198593497276306,0.7736256718635559
1701290742740417800,4.638417724609375,-0.2548847496509552,-0.2190447300672531,0.6798725128173828
1701290742750493000,4.648492919921875,-0.17123912274837494,0.05005145072937012,0.574948251247406
1701290742760567800,4.65856787109375,-0.026632409542798996,0.04541408643126488,0.4485495686531067
1701290742770642700,4.668642578125,0.11646828800439835,-0.17711246013641357,0.31006118655204773
1701290742780718800,4.67871875,0.24258893728256226,-0.300443172454834,0.24292422831058502
1701290742790794000,4.6887939453125,0.3653255105018616,0.026150643825531006,0.3943028450012207
1701290742800868900,4.698868896484375,0.47303760051727295,0.5547404289245605,0.7148140072822571
1701290742810944800,4.70894482421875,0.5123509168624878,0.7643847465515137,0.8738507628440857
1701290742821020000,4.71902001953125,0.4389725625514984,0.6501266360282898,0.7674481868743896
1701290742831094800,4.7290947265625,0.2654055655002594,0.5095548629760742,0.6471508145332336
1701290742841170000,4.739169921875,0.10015030205249786,0.4784590005874634,0.6312820911407471
1701290742851245800,4.749245849609375,0.021750569343566895,0.4772813320159912,0.6990523338317871
1701290742861320700,4.75932080078125,0.12063667178153992,0.43902289867401123,0.8815705180168152
1701290742871395800,4.769395751953125,0.3609267771244049,0.2408464401960373,1.0211122035980225
1701290742881470700,4.779470703125,0.6154128313064575,-0.015776565298438072,1.104257345199585
1701290742891546600,4.789546630859375,0.8926870822906494,-0.09643173217773438,1.3987460136413574
1701290742901621800,4.799621826171875,1.2018595933914185,-0.048053011298179626,1.8743172883987427
1701290742911697000,4.80969677734375,1.4070146083831787,-0.12396535277366638,2.0623011589050293
1701290742921772800,4.819772705078125,1.3820788860321045,-0.4173487722873688,1.9391634464263916
1701290742931848000,4.829847900390625,1.216467261314392,-0.7925612330436707,1.8337414264678955
1701290742941922800,4.8399228515625,1.0497139692306519,-0.9362702369689941,1.801801085472107
1701290742951997700,4.849997802734375,0.9905723333358765,-0.8073636293411255,1.6871109008789062
1701290742962073900,4.860073974609375,1.0990204811096191,-0.49464622139930725,1.4447262287139893
1701290742972149000,4.87014892578125,1.2343086004257202,-0.13127173483371735,1.3440779447555542
1701290742982224000,4.880223876953125,1.1870020627975464,-0.23138181865215302,1.266510248184204
1701290742992298800,4.890298828125,0.9195418357849121,-0.38670748472213745,1.0945264101028442
1701290743002375000,4.900375,0.7012491822242737,-0.47039467096328735,0.868370532989502
1701290743012449800,4.91044970703125,0.622391939163208,-0.546402633190155,0.5875569581985474
1701290743022525000,4.92052490234375,0.5693287253379822,-0.4713957607746124,0.34806424379348755
1701290743032600800,4.930600830078125,0.412399560213089,-0.35781487822532654,0.2631482779979706
1701290743042675700,4.94067578125,0.18512219190597534,-0.26471075415611267,0.24297375977039337
1701290743052750800,4.950750732421875,0.005249889567494392,-0.15199805796146393,0.20232167840003967
1701290743062825700,4.96082568359375,-0.047635164111852646,-0.023320501670241356,0.1330408751964569
1701290743072901600,4.970901611328125,-0.02623293548822403,0.07163690030574799,0.02870115265250206
1701290743082976800,4.980976806640625,0.005607019178569317,0.19119073450565338,-0.10035722702741623
1701290743093052000,4.991052001953125,0.03814765065908432,0.2697420120239258,-0.2461024522781372
1701290743103126800,5.001126708984375,0.049200303852558136,0.2037893533706665,-0.42059117555618286
1701290743113202400,5.011202392578125,0.0368400402367115,0.05040990933775902,-0.5755797028541565
1701290743123277300,5.02127734375,0.004643487744033337,-0.13888704776763916,-0.6853123307228088
1701290743133352200,5.031352294921875,-0.03514919802546501,-0.32501882314682007,-0.7660633325576782
1701290743143428400,5.041428466796875,-0.07876618206501007,-0.46086373925209045,-0.8279190063476562
1701290743153503500,5.05150341796875,-0.132137268781662,-0.47674044966697693,-0.8760265707969666
1701290743163578400,5.061578369140625,-0.21714377403259277,-0.40160149335861206,-0.9122674465179443
1701290743173653200,5.0716533203125,-0.3319060504436493,-0.2832849621772766,-0.9254530072212219
1701290743183729400,5.0817294921875,-0.456857293844223,-0.16590933501720428,-0.8804455995559692
1701290743193804300,5.09180419921875,-0.5632013082504272,-0.10977257043123245,-0.8012341260910034
1701290743203879400,5.10187939453125,-0.6564018130302429,-0.1078721359372139,-0.7285247445106506
1701290743213954600,5.11195458984375,-0.7707153558731079,-0.08489491790533066,-0.6875908970832825
1701290743224030200,5.1220302734375,-0.8765464425086975,0.03112170100212097,-0.6891504526138306
1701290743234105300,5.132105224609375,-0.9552532434463501,0.22097791731357574,-0.7213901281356812
1701290743244180500,5.142180419921875,-1.0149219036102295,0.42036932706832886,-0.7585686445236206
1701290743254256000,5.152256103515625,-1.060926079750061,0.572401225566864,-0.7733598947525024
1701290743264331300,5.162331298828125,-1.088242769241333,0.6456940770149231,-0.7587878704071045
1701290743274406400,5.172406494140625,-1.0939050912857056,0.6645167469978333,-0.724225640296936
1701290743284481300,5.182481201171875,-1.0886433124542236,0.6987751126289368,-0.7099028825759888
1701290743294557400,5.192557373046875,-1.0681779384613037,0.7759037017822266,-0.7268214225769043
1701290743304632300,5.20263232421875,-1.015701413154602,0.8383615016937256,-0.7645919322967529
1701290743314707200,5.212707275390625,-0.9144397377967834,0.8345774412155151,-0.7926725745201111
1701290743324783400,5.222783447265625,-0.7896615862846375,0.8163816332817078,-0.815236508846283
1701290743334858500,5.2328583984375,-0.6784884929656982,0.7852301001548767,-0.840729296207428
1701290743344933400,5.242933349609375,-0.613734781742096,0.7431785464286804,-0.8495246767997742
1701290743355008300,5.25300830078125,-0.579731822013855,0.6352059841156006,-0.8232831954956055
1701290743365084400,5.26308447265625,-0.5507560968399048,0.3768266439437866,-0.7641274929046631
1701290743375159300,5.2731591796875,-0.47122636437416077,0.011347996070981026,-0.6693804860115051
1701290743385234400,5.283234375,-0.3571930229663849,-0.30657804012298584,-0.5776388645172119
1701290743395309600,5.2933095703125,-0.23646020889282227,-0.4993187189102173,-0.5338703393936157
1701290743405385200,5.30338525390625,-0.11937619745731354,-0.6128279566764832,-0.5500527620315552
1701290743415460400,5.31346044921875,-0.03987790644168854,-0.6640581488609314,-0.626062273979187
1701290743425535500,5.323535400390625,0.020367588847875595,-0.6802802681922913,-0.7518726587295532
1701290743435610400,5.3336103515625,0.07000092417001724,-0.634353518486023,-0.8660804629325867
1701290743445686300,5.343686279296875,0.11033742874860764,-0.5029760599136353,-0.9290607571601868
1701290743455761400,5.353761474609375,0.11928857862949371,-0.31343114376068115,-0.9028832316398621
1701290743465836300,5.363836181640625,0.10586144775152206,-0.1869184821844101,-0.7667317986488342
1701290743475912400,5.373912353515625,0.08449198305606842,-0.04158978909254074,-0.565683901309967
1701290743485987300,5.3839873046875,0.10462547838687897,0.11675111949443817,-0.406907856464386
1701290743496062200,5.394062255859375,0.27359798550605774,0.14684537053108215,-0.3073953688144684
1701290743506137300,5.404137451171875,0.5750417113304138,0.2919943034648895,-0.13408084213733673
1701290743516213500,5.414213623046875,0.9147518873214722,0.8031827211380005,0.03525625914335251
1701290743526288400,5.424288330078125,1.1449898481369019,1.186359167098999,0.10385289788246155
1701290743536363300,5.43436328125,1.1105003356933594,1.1420342922210693,-0.09663679450750351
1701290743546439400,5.444439453125,0.9268466234207153,0.958406925201416,-0.3690864145755768
1701290743556514300,5.454514404296875,0.885466992855072,1.353286623954773,-0.5485531091690063
1701290743566589400,5.46458935546875,0.8956578373908997,2.6258769035339355,1.7496763467788696
1701290743576664300,5.474664306640625,0.9899134635925293,1.487398624420166,2.949169158935547
1701290743586740200,5.484740234375,0.5686312317848206,-1.4447494745254517,1.6379474401474
1701290743596815400,5.4948154296875,0.1499418318271637,-2.7968873977661133,0.49477270245552063
1701290743606890500,5.504890380859375,-0.12594088912010193,-2.4836368560791016,0.029634857550263405
1701290743616965400,5.51496533203125,-0.2084892988204956,-1.632644534111023,-0.15897846221923828
1701290743627041300,5.525041259765625,-0.06310652941465378,-0.9803940057754517,-0.308697372674942
1701290743637116400,5.535116455078125,0.12067581713199615,-0.5110984444618225,-0.449092835187912
1701290743647191300,5.54519140625,0.03437421843409538,0.12229608744382858,-0.6427714824676514
1701290743657266400,5.555266357421875,-0.1798326075077057,0.8522363305091858,-0.8946601748466492
1701290743667342300,5.56534228515625,-0.30876076221466064,1.103224277496338,-1.2305582761764526
1701290743677417200,5.575417236328125,-0.21766094863414764,1.1289401054382324,-1.560937523841858
1701290743687492400,5.585492431640625,-0.15049150586128235,1.7195498943328857,-1.2780067920684814
1701290743697568500,5.595568603515625,-0.11210576444864273,1.5022460222244263,-0.2201392948627472
1701290743707643400,5.605643310546875,-0.1957513988018036,0.243970587849617,0.21987085044384003
1701290743717718300,5.61571826171875,-0.3099570572376251,-0.8119557499885559,-0.2066224217414856
1701290743727793400,5.62579345703125,-0.3809007406234741,-1.2258487939834595,-0.6935611963272095
1701290743737869300,5.635869384765625,-0.3932200074195862,-1.0904581546783447,-0.8639459609985352
1701290743747944400,5.6459443359375,-0.4213549494743347,-0.6822366118431091,-0.7463391423225403
1701290743758019300,5.656019287109375,-0.5028750896453857,-0.398614764213562,-0.56590735912323
1701290743768095200,5.66609521484375,-0.5935038328170776,-0.1536199152469635,-0.48435816168785095
1701290743778170400,5.67617041015625,-0.6332837343215942,0.17125244438648224,-0.47280004620552063
1701290743788245500,5.68624560546875,-0.6352248787879944,0.4534388482570648,-0.4633442163467407
1701290743798320400,5.6963203125,-0.6094798445701599,0.48698270320892334,-0.4305412769317627
1701290743808396300,5.706396240234375,-0.5528932809829712,0.3597158193588257,-0.3868579566478729
1701290743818471400,5.716471435546875,-0.4898533225059509,0.17890796065330505,-0.35568246245384216
1701290743828546300,5.72654638671875,-0.4357168674468994,0.00016165387933142483,-0.3137669861316681
1701290743838621400,5.736621337890625,-0.39382800459861755,-0.11338594555854797,-0.24305686354637146
1701290743848697300,5.746697265625,-0.34815478324890137,-0.0984453484416008,-0.21431416273117065
1701290743858772200,5.756772216796875,-0.3014916777610779,-0.004054130055010319,-0.27625370025634766
1701290743868847400,5.766847412109375,-0.23444445431232452,0.03515559062361717,-0.3721679747104645
1701290743878923500,5.776923583984375,-0.14539048075675964,0.013022058643400669,-0.39498940110206604
1701290743888998100,5.786998046875,-0.04131707921624184,-0.027547737583518028,-0.22280006110668182
1701290743899073300,5.7970732421875,0.06603574007749557,-0.16763800382614136,0.07180415093898773
1701290743909148400,5.8071484375,0.14924807846546173,-0.44890108704566956,0.23318985104560852
1701290743919224300,5.817224365234375,0.19978821277618408,-0.8101189732551575,0.18171226978302002
1701290743929299500,5.827299560546875,0.22041918337345123,-1.0353584289550781,0.08616045117378235
1701290743939374300,5.837374267578125,0.22052519023418427,-0.9212929010391235,0.0797872394323349
1701290743949449200,5.84744921875,0.1958046555519104,-0.6018800139427185,0.25841477513313293
1701290743959525400,5.857525390625,0.17423439025878906,-0.49007490277290344,0.5227828025817871
1701290743969600500,5.8676005859375,0.15362471342086792,-0.5235170125961304,0.658399224281311
1701290743979675400,5.87767529296875,0.09799767285585403,-0.5005555152893066,0.6547996401786804
1701290743989751300,5.887751220703125,0.003209908027201891,-0.40043503046035767,0.5775576233863831
1701290743999826400,5.897826416015625,-0.10820876061916351,-0.3013550639152527,0.5122960209846497
1701290744009901300,5.9079013671875,-0.206780344247818,-0.21075564622879028,0.4843538999557495
1701290744019976400,5.9179765625,-0.23013386130332947,0.024564998224377632,0.5117729902267456
1701290744030052400,5.92805224609375,-0.15474483370780945,0.34452489018440247,0.611786425113678
1701290744040127200,5.938127197265625,-0.05627019703388214,0.5022783279418945,0.6746074557304382
1701290744050202400,5.948202392578125,0.03333904966711998,0.42400026321411133,0.6423592567443848
1701290744060277200,5.95827734375,0.1311819851398468,0.2881265878677368,0.6305379867553711
1701290744070353200,5.968353271484375,0.22331777215003967,0.23033733665943146,0.6771979331970215
1701290744080428300,5.97842822265625,0.330965131521225,0.42279893159866333,0.8503822088241577
1701290744090503400,5.98850341796875,0.4532705545425415,0.5974743366241455,1.121883749961853
1701290744100579300,5.998579345703125,0.4871499538421631,0.5163664221763611,1.1767536401748657
1701290744110654200,6.008654296875,0.47585999965667725,0.4947657883167267,1.1162046194076538
1701290744120729000,6.01872900390625,0.4318038821220398,0.6193687319755554,1.1576972007751465
1701290744130804000,6.028803955078125,0.4181916415691376,0.6658533811569214,1.238737940788269
1701290744140880100,6.038880126953125,0.48943546414375305,0.6002000570297241,1.3262441158294678
1701290744150955300,6.048955322265625,0.6411307454109192,0.43863141536712646,1.3488572835922241
1701290744161030100,6.059030029296875,0.7925655245780945,0.2320351004600525,1.3194719552993774
1701290744171105000,6.06910498046875,0.8845122456550598,0.0782676413655281,1.3398702144622803
1701290744181181200,6.07918115234375,0.9550508260726929,0.04417385160923004,1.4087815284729004
1701290744191256300,6.08925634765625,1.0269412994384766,-0.017377125099301338,1.425095558166504
1701290744201331200,6.099331298828125,1.071092963218689,-0.15108299255371094,1.3905128240585327
1701290744211407000,6.109406982421875,1.1303235292434692,-0.20125187933444977,1.3198308944702148
1701290744221482200,6.119482177734375,1.1852020025253296,-0.0926138237118721,1.2464011907577515
1701290744231557000,6.12955712890625,1.1980626583099365,0.25287380814552307,1.2166401147842407
1701290744241632300,6.13963232421875,1.0541881322860718,0.5978264212608337,1.1072595119476318
1701290744251708200,6.149708251953125,0.8240656852722168,0.8136169910430908,0.9613732099533081
1701290744261783000,6.159782958984375,0.7115654945373535,0.6356493830680847,0.7831472754478455
1701290744271858200,6.169858154296875,0.7297918796539307,0.21644814312458038,0.5884115695953369
1701290744281933000,6.17993310546875,0.7628518342971802,-0.14691221714019775,0.42051953077316284
1701290744292009200,6.19000927734375,0.7311682105064392,-0.32344090938568115,0.27894002199172974
1701290744302084000,6.200083984375,0.6309760808944702,-0.28847599029541016,0.15606948733329773
1701290744312159000,6.210158935546875,0.49922046065330505,-0.13217854499816895,0.06406047195196152
1701290744322235100,6.220235107421875,0.38105466961860657,0.01606392115354538,0.025976207107305527
1701290744332310300,6.230310302734375,0.3151446282863617,0.042578086256980896,0.03604721650481224
1701290744342385200,6.24038525390625,0.2872466742992401,-0.08079843968153,0.0508650466799736
1701290744352460000,6.2504599609375,0.26091307401657104,-0.27595195174217224,0.01629588194191456
1701290744362536200,6.2605361328125,0.19621877372264862,-0.3766562044620514,-0.0627235695719719
1701290744372611300,6.270611328125,0.11601288616657257,-0.39473825693130493,-0.16464780271053314
1701290744382686200,6.280686279296875,0.03688664361834526,-0.3926452696323395,-0.253814160823822
1701290744392761300,6.29076123046875,-0.03160027042031288,-0.4393310248851776,-0.3136069178581238
1701290744402837200,6.300837158203125,-0.10221078991889954,-0.5059571862220764,-0.3404664993286133
1701290744412912000,6.310912109375,-0.17759528756141663,-0.5206471681594849,-0.33383283019065857
1701290744422987300,6.3209873046875,-0.25297632813453674,-0.45166972279548645,-0.3161182701587677
1701290744433063200,6.331063232421875,-0.3226502239704132,-0.3304287791252136,-0.3072938919067383
1701290744443138000,6.341137939453125,-0.38813307881355286,-0.19929100573062897,-0.3113940954208374
1701290744453213200,6.351213134765625,-0.4707810878753662,-0.11342349648475647,-0.32543882727622986
1701290744463288000,6.3612880859375,-0.5677971243858337,-0.07743407040834427,-0.34280529618263245
1701290744473364200,6.3713642578125,-0.6653891801834106,-0.02365046739578247,-0.35457247495651245
1701290744483439000,6.381439208984375,-0.7358463406562805,0.1237240731716156,-0.3576558828353882
1701290744493514000,6.391513916015625,-0.7936230897903442,0.3595179617404938,-0.369327187538147
1701290744503589000,6.401589111328125,-0.8571447730064392,0.5401921272277832,-0.38091087341308594
1701290744513665300,6.411665283203125,-0.9202872514724731,0.615363597869873,-0.38759833574295044
1701290744523740400,6.421740478515625,-0.9803367257118225,0.5684719681739807,-0.38729339838027954
1701290744533815000,6.43181494140625,-1.0372322797775269,0.4554586112499237,-0.3667934536933899
1701290744543891200,6.44189111328125,-1.0833009481430054,0.38467976450920105,-0.3333643972873688
1701290744553966300,6.45196630859375,-1.1126312017440796,0.40740132331848145,-0.31056931614875793
1701290744564041200,6.462041259765625,-1.1377545595169067,0.5230376720428467,-0.33245837688446045
1701290744574116400,6.472116455078125,-1.1626652479171753,0.6628453731536865,-0.40404096245765686
1701290744584192300,6.482192138671875,-1.183603286743164,0.7742400169372559,-0.49737197160720825
1701290744594267100,6.49226708984375,-1.167908787727356,0.8308181166648865,-0.5948817133903503
1701290744604342300,6.50234228515625,-1.1050171852111816,0.8099439740180969,-0.6960639953613281
1701290744614417200,6.512417236328125,-1.0060306787490845,0.7159892320632935,-0.8353513479232788
1701290744624493000,6.5224931640625,-0.9095760583877563,0.5808119773864746,-1.0318022966384888
1701290744634568200,6.532568115234375,-0.8536509871482849,0.3146756589412689,-1.2473982572555542
1701290744644643000,6.54264306640625,-0.8103216290473938,-0.045707833021879196,-1.351194143295288
1701290744654719200,6.55271923828125,-0.7432048916816711,-0.47835806012153625,-1.3113309144973755
1701290744664794000,6.562794189453125,-0.6247432231903076,-0.8876185417175293,-1.1540800333023071
1701290744674869000,6.572868896484375,-0.4095398485660553,-1.1997185945510864,-0.9306754469871521
1701290744684944100,6.582944091796875,-0.14203330874443054,-1.273992896080017,-0.6887757182121277
1701290744695020300,6.593020263671875,0.0988064706325531,-1.003395438194275,-0.4415867328643799
1701290744705095200,6.60309521484375,0.2785876989364624,-0.5566579103469849,-0.21721380949020386
1701290744715170000,6.613170166015625,0.3807028830051422,-0.16193510591983795,-0.06024496629834175
1701290744725245200,6.6232451171875,0.393347829580307,0.04573499783873558,-0.005291168577969074
1701290744735321300,6.6333212890625,0.35543692111968994,0.09078796207904816,-0.021648837253451347
1701290744745396200,6.643396240234375,0.295541912317276,0.1127806082367897,-0.10504066199064255
1701290744755471000,6.65347119140625,0.20485354959964752,0.17530576884746552,-0.23651666939258575
1701290744765547300,6.66354736328125,0.12651799619197845,0.23606978356838226,-0.35945990681648254
1701290744775622100,6.6736220703125,0.0783105194568634,0.28222209215164185,-0.40855127573013306
1701290744785697300,6.683697265625,0.03127243369817734,0.3149624764919281,-0.38270822167396545
1701290744795772200,6.693772216796875,0.030962176620960236,0.31046733260154724,-0.3616285026073456
1701290744805848000,6.70384814453125,0.14096377789974213,0.3869602382183075,-0.32166457176208496
1701290744815923200,6.713923095703125,0.37355682253837585,0.5826623439788818,-0.12228357046842575
1701290744825998000,6.723998046875,0.6786344051361084,0.8378677368164062,0.16745078563690186
1701290744836073200,6.7340732421875,0.8669366836547852,0.8865159749984741,0.40545853972435
1701290744846149000,6.744149169921875,0.7706943154335022,0.788406491279602,0.2858642339706421
1701290744856224000,6.75422412109375,0.4793785810470581,0.5496892333030701,-0.009285910055041313
1701290744866299100,6.764299072265625,0.390507310628891,0.7022449374198914,-0.3326970040798187
1701290744876375300,6.774375244140625,0.5261223912239075,1.8029606342315674,0.5284715294837952
1701290744886450200,6.7844501953125,0.7373419404029846,0.9398516416549683,1.6191561222076416
1701290744896525000,6.794525146484375,0.48757606744766235,-1.382633090019226,0.9519503712654114
1701290744906600200,6.80460009765625,0.15994226932525635,-2.1551265716552734,0.2269814908504486
1701290744916676400,6.81467626953125,-0.038900792598724365,-1.6761994361877441,-0.08272790163755417
1701290744926751200,6.824751220703125,-0.04349794238805771,-0.8875817656517029,-0.25274384021759033
1701290744936826000,6.834826171875,0.07838401943445206,-0.3755618929862976,-0.43637144565582275
1701290744946901000,6.84490087890625,-0.08364535868167877,-0.20811645686626434,-0.602748453617096
1701290744956977200,6.85497705078125,-0.39839717745780945,-0.03815670683979988,-0.7369195818901062
1701290744967052300,6.86505224609375,-0.5950868129730225,0.3352411091327667,-0.8531263470649719
1701290744977127200,6.875127197265625,-0.5450289845466614,0.7158395648002625,-0.9476286172866821
1701290744987203000,6.885203125,-0.3463195860385895,0.7030484080314636,-0.8476029634475708
1701290744997278200,6.8952783203125,-0.27227306365966797,0.41055983304977417,-0.47592952847480774
1701290745007353000,6.90535302734375,-0.22432364523410797,-0.0663963332772255,-0.2907942831516266
1701290745017428200,6.91542822265625,-0.21797174215316772,-0.3666568398475647,-0.4073382019996643
1701290745027504000,6.925504150390625,-0.23852841556072235,-0.37354323267936707,-0.5739330649375916
1701290745037579000,6.9355791015625,-0.2647493779659271,-0.23329530656337738,-0.5854272246360779
1701290745047654100,6.945654052734375,-0.2599540948867798,-0.12938781082630157,-0.48777446150779724
1701290745057730300,6.955730224609375,-0.2550506591796875,-0.22897113859653473,-0.42548897862434387
1701290745067805200,6.96580517578125,-0.2797858417034149,-0.41842547059059143,-0.41542649269104004
1701290745077880000,6.975880126953125,-0.2980082631111145,-0.4996798634529114,-0.40937232971191406
1701290745087955200,6.985955078125,-0.30564752221107483,-0.432242751121521,-0.4029562473297119
1701290745098031400,6.99603125,-0.2972732186317444,-0.24756266176700592,-0.36558598279953003
1701290745108106500,7.0061064453125,-0.26093733310699463,-0.04610730707645416,-0.29603779315948486
1701290745118181000,7.01618115234375,-0.2022865265607834,0.09073203057050705,-0.20906826853752136
1701290745128256300,7.02625634765625,-0.14089800417423248,0.16637912392616272,-0.12282685190439224
1701290745138332400,7.03633251953125,-0.09814786911010742,0.14548635482788086,-0.08912614732980728
1701290745148407300,7.0464072265625,-0.07512857019901276,0.0311022587120533,-0.106967993080616
1701290745158482400,7.056482421875,-0.06446101516485214,-0.06637875735759735,-0.14862142503261566
1701290745168558300,7.066558349609375,-0.03941664844751358,-0.13099902868270874,-0.18067842721939087
1701290745178633200,7.07663330078125,0.002100701443850994,-0.24394795298576355,-0.21801914274692535
1701290745188708400,7.086708251953125,0.06998760998249054,-0.45482105016708374,-0.2817813456058502
1701290745198783500,7.096783447265625,0.14008893072605133,-0.7022033929824829,-0.3463025391101837
1701290745208859100,7.106859130859375,0.19198700785636902,-0.8594074249267578,-0.35690271854400635
1701290745218934300,7.116934326171875,0.22499103844165802,-0.8340693116188049,-0.272341787815094
1701290745229009400,7.127009521484375,0.22485361993312836,-0.7017735838890076,-0.1442173570394516
1701290745239084300,7.137084228515625,0.17288921773433685,-0.5940361618995667,-0.06519578397274017
1701290745249160200,7.14716015625,0.10166377574205399,-0.5463150143623352,-0.0928196832537651
1701290745259235300,7.1572353515625,0.012745888903737068,-0.5749863386154175,-0.1267898976802826
1701290745269310200,7.167310302734375,-0.09003747999668121,-0.667672872543335,-0.06419096887111664
1701290745279386400,7.177386474609375,-0.13944551348686218,-0.7540966868400574,0.1225845068693161
1701290745289461200,7.187461181640625,-0.16661055386066437,-0.5859639048576355,0.3287033140659332
1701290745299536100,7.1975361328125,-0.17921583354473114,-0.0515766404569149,0.46415355801582336
1701290745309611300,7.207611328125,-0.13053856790065765,0.414009153842926,0.5524424314498901
1701290745319687400,7.2176875,-0.09680963307619095,0.45291393995285034,0.600727379322052
1701290745329762300,7.22776220703125,-0.14773592352867126,0.26063159108161926,0.6536356210708618
1701290745339837400,7.23783740234375,-0.23654836416244507,0.06131502240896225,0.793499767780304
1701290745349912300,7.247912353515625,-0.2747916281223297,-0.038475751876831055,0.9498169422149658
1701290745359988200,7.25798828125,-0.2008553445339203,0.12975852191448212,1.1279038190841675
1701290745370063400,7.2680634765625,-0.05470292642712593,0.3893861174583435,1.2118993997573853
1701290745380138500,7.278138427734375,0.07175514847040176,0.5065212249755859,1.0898557901382446
1701290745390213400,7.28821337890625,0.10849931091070175,0.4837919771671295,0.9855341911315918
1701290745400289300,7.298289306640625,0.12229901552200317,0.42681631445884705,1.0081766843795776
1701290745410364400,7.308364501953125,0.12628524005413055,0.47183358669281006,1.097733974456787
1701290745420439300,7.318439208984375,0.1459510773420334,0.619035005569458,1.1781864166259766
1701290745430515200,7.32851513671875,0.1876221001148224,0.6552795767784119,1.1298482418060303
1701290745440590300,7.33859033203125,0.24666623771190643,0.5973142981529236,1.0271096229553223
1701290745450665200,7.348665283203125,0.34285295009613037,0.5108156204223633,0.9677644968032837
1701290745460740400,7.358740234375,0.47530579566955566,0.4752134084701538,0.9351810216903687
1701290745470816300,7.368816162109375,0.6649923920631409,0.4824196398258209,0.9090859889984131
1701290745480891100,7.37889111328125,0.8972424268722534,0.4453854560852051,0.9508041739463806
1701290745490966300,7.38896630859375,1.1125515699386597,0.3575296401977539,1.0969980955123901
1701290745501042400,7.39904248046875,1.2837715148925781,0.1562468558549881,1.189363956451416
1701290745511117300,7.409117431640625,1.3861314058303833,-0.17815908789634705,1.0938518047332764
1701290745521192200,7.419192138671875,1.4364044666290283,-0.34757980704307556,0.9744426608085632
1701290745531267300,7.429267333984375,1.4239001274108887,-0.31660696864128113,0.9147825241088867
1701290745541343200,7.43934326171875,1.3490455150604248,-0.22509942948818207,0.8425418734550476
1701290745551418400,7.44941845703125,1.2170279026031494,-0.19726993143558502,0.7056831121444702
1701290745561493500,7.459493408203125,1.0358858108520508,-0.33391273021698,0.5299397706985474
1701290745571568000,7.469568115234375,0.9054545164108276,-0.6263174414634705,0.33793383836746216
1701290745581644300,7.479644287109375,0.8781417012214661,-0.73035728931427,0.19945558905601501
1701290745591719400,7.489719482421875,0.8816490769386292,-0.645182192325592,0.10528301447629929
1701290745601794300,7.499794189453125,0.8371465802192688,-0.47608691453933716,0.022404640913009644
1701290745611870200,7.5098701171875,0.7029456496238708,-0.28614866733551025,-0.007280283607542515
1701290745621945300,7.5199453125,0.5109016299247742,-0.16323207318782806,-0.040108270943164825
1701290745632020200,7.530020263671875,0.3652746379375458,-0.08102428168058395,-0.07893636077642441
1701290745642095400,7.540095458984375,0.3377729654312134,0.017140105366706848,-0.07904554903507233
1701290745652171300,7.550171142578125,0.36948084831237793,0.06809090077877045,-0.07968124747276306
1701290745662246100,7.56024609375,0.36219602823257446,0.0202778410166502,-0.13486114144325256
1701290745672321300,7.5703212890625,0.28140026330947876,-0.1499340981245041,-0.23786182701587677
1701290745682396400,7.580396484375,0.1628565639257431,-0.3986975848674774,-0.3485465347766876
1701290745692472300,7.590472412109375,0.054482948035001755,-0.61805260181427,-0.4362103343009949
1701290745702547200,7.600547119140625,-0.037395041435956955,-0.7174518704414368,-0.5009675025939941
1701290745712622300,7.610622314453125,-0.13023842871189117,-0.6703392267227173,-0.5366453528404236
1701290745722698200,7.6206982421875,-0.23646792769432068,-0.53736811876297,-0.5584808588027954
1701290745732773400,7.6307734375,-0.363272488117218,-0.3850049376487732,-0.5700269937515259
1701290745742848500,7.6408486328125,-0.4999690651893616,-0.271411269903183,-0.5732949376106262
1701290745752923100,7.650923095703125,-0.6312583684921265,-0.20300237834453583,-0.5654279589653015
1701290745762999300,7.660999267578125,-0.7533430457115173,-0.16328586637973785,-0.5555071830749512
1701290745773074400,7.671074462890625,-0.843567430973053,-0.13406220078468323,-0.5329605937004089
1701290745783149300,7.6811494140625,-0.9111238718032837,-0.08785821497440338,-0.5150516033172607
1701290745793224400,7.691224365234375,-0.9738783240318298,0.031560588628053665,-0.49447736144065857
1701290745803300400,7.70130029296875,-1.029462218284607,0.20159730315208435,-0.45260074734687805
1701290745813375200,7.711375244140625,-1.0549085140228271,0.3883986175060272,-0.40964582562446594
1701290745823450400,7.721450439453125,-1.0538476705551147,0.5977007150650024,-0.4081944227218628
1701290745833526300,7.7315263671875,-1.0627496242523193,0.8558635115623474,-0.44340193271636963
1701290745843601200,7.74160107421875,-1.0929546356201172,1.1106287240982056,-0.5271671414375305
1701290745853676300,7.75167626953125,-1.11491060256958,1.242935299873352,-0.6087296605110168
1701290745863751400,7.76175146484375,-1.1047210693359375,1.183745265007019,-0.6329089999198914
1701290745873827300,7.771827392578125,-1.071581482887268,0.976777970790863,-0.5705681443214417
1701290745883902200,7.781902099609375,-1.0401017665863037,0.688529372215271,-0.48254480957984924
1701290745893977300,7.791977294921875,-1.0111883878707886,0.3991013169288635,-0.4373033046722412
1701290745904052200,7.80205224609375,-0.9797617793083191,0.1639638990163803,-0.45646634697914124
1701290745914128400,7.81212841796875,-0.924855649471283,0.006597715429961681,-0.49648192524909973
1701290745924203500,7.82220361328125,-0.8188748955726624,-0.10110930353403091,-0.5009962320327759
1701290745934278100,7.832278076171875,-0.6691125631332397,-0.17789356410503387,-0.4521072804927826
1701290745944354300,7.842354248046875,-0.5025848150253296,-0.18395625054836273,-0.3925217092037201
1701290745954429400,7.852429443359375,-0.350274920463562,-0.1490403413772583,-0.368807315826416
1701290745964504300,7.86250439453125,-0.2265748232603073,-0.12492462247610092,-0.4038199186325073
1701290745974579500,7.872579345703125,-0.1254199743270874,-0.117296002805233,-0.4829469621181488
1701290745984655400,7.8826552734375,-0.0436159186065197,-0.13100701570510864,-0.594003438949585
1701290745994730200,7.892730224609375,0.014763499610126019,-0.14438514411449432,-0.7009354829788208
1701290746004805400,7.902805419921875,0.025546638295054436,-0.1487303525209427,-0.788417637348175
1701290746014880300,7.91288037109375,-0.0059870523400604725,-0.16880153119564056,-0.8464567065238953
1701290746024956200,7.9229560546875,-0.031796813011169434,-0.18810199201107025,-0.8520613312721252
1701290746035031300,7.93303125,-0.05792668089270592,-0.2254488319158554,-0.7671270370483398
1701290746045106400,7.9431064453125,-0.08861908316612244,-0.2651733458042145,-0.6149694323539734
1701290746055182300,7.953182373046875,-0.10339829325675964,-0.2474564015865326,-0.4617529809474945
1701290746065257200,7.96325732421875,-0.1052854061126709,-0.17414969205856323,-0.3265775740146637
1701290746075332400,7.973332275390625,-0.10665560513734818,-0.0345555804669857,-0.2197643220424652
1701290746085407200,7.9834072265625,-0.05764491856098175,0.13717329502105713,-0.11961108446121216
1701290746095483400,7.9934833984375,0.07958803325891495,0.3138527274131775,0.08757245540618896
1701290746105558300,8.003558349609374,0.24967987835407257,0.5462851524353027,0.4657977819442749
1701290746115633000,8.0136328125,0.4341575801372528,1.0562435388565063,0.796780526638031
1701290746125708000,8.0237080078125,0.5995545387268066,1.7005527019500732,0.8023779392242432
1701290746135784200,8.0337841796875,0.6207815408706665,2.1105785369873047,0.4290746748447418
1701290746145859000,8.043859130859374,0.4524313807487488,1.9979487657546997,-0.05216679722070694
1701290746155934200,8.053934326171875,0.21267391741275787,1.5356862545013428,-0.348664790391922
1701290746166010000,8.064010009765624,0.10533227771520615,1.2133153676986694,-0.4436163306236267
1701290746176085000,8.0740849609375,0.09748687595129013,1.0333027839660645,-0.3207780122756958
1701290746186160000,8.08416015625,0.11397423595190048,0.5981656908988953,-0.19561849534511566
1701290746196235000,8.094235107421875,0.18259510397911072,0.13729260861873627,-0.20655131340026855
1701290746206311000,8.104310791015624,0.22914929687976837,-0.00035473305615596473,-0.20005959272384644
1701290746216386000,8.114385986328125,0.12967383861541748,-0.018385132774710655,0.04114903509616852
1701290746226461000,8.1244609375,-0.01209687627851963,-0.6219218969345093,0.16864360868930817
1701290746236537000,8.134537109375,-0.04942693933844566,-1.2586077451705933,0.099392369389534
1701290746246612000,8.144612060546875,-0.10542842000722885,-1.4314634799957275,0.10045896470546722
1701290746256687000,8.15468701171875,-0.11586587876081467,-1.2808624505996704,0.08059417456388474
1701290746266762000,8.164761962890625,-0.03826509788632393,-1.0527489185333252,-0.08975731581449509
1701290746276838100,8.174838134765626,-0.05349225178360939,-0.6123957633972168,-0.3453187942504883
1701290746286913300,8.184913330078125,-0.18014100193977356,-0.0065529742278158665,-0.6334778666496277
1701290746296988000,8.19498779296875,-0.3079964518547058,0.3214571177959442,-1.0056644678115845
1701290746307063000,8.20506298828125,-0.4093984365463257,0.373288094997406,-1.3160250186920166
1701290746317139200,8.21513916015625,-0.4384889304637909,0.4542974531650543,-1.2524510622024536
1701290746327214000,8.225214111328125,-0.37187954783439636,0.35457485914230347,-0.9048076272010803
1701290746337289200,8.235289306640626,-0.27850139141082764,-0.011059575714170933,-0.6184192895889282
1701290746347365000,8.245365234375,-0.24715706706047058,-0.31260982155799866,-0.585476279258728
1701290746357440000,8.25543994140625,-0.25871384143829346,-0.27963244915008545,-0.6411267518997192
1701290746367515100,8.26551513671875,-0.26590704917907715,-0.15089178085327148,-0.6005590558052063
1701290746377590000,8.275590087890626,-0.27334845066070557,-0.09384659677743912,-0.47541314363479614
1701290746387666000,8.285666015625,-0.29140734672546387,-0.08347970992326736,-0.34915852546691895
1701290746397741000,8.295740966796876,-0.3262058198451996,-0.06579738855361938,-0.27021417021751404
1701290746407816000,8.30581591796875,-0.35977068543434143,-0.027695011347532272,-0.23613183200359344
1701290746417892000,8.31589208984375,-0.37889406085014343,0.053956709802150726,-0.22892452776432037
1701290746427967000,8.325967041015625,-0.36783501505851746,0.1318371295928955,-0.2291487604379654
1701290746438042000,8.3360419921875,-0.3066520690917969,0.1275920420885086,-0.2144467830657959
1701290746448117000,8.346116943359375,-0.20707862079143524,0.06421387195587158,-0.18253226578235626
1701290746458193200,8.356193115234374,-0.0955536887049675,-0.10537675768136978,-0.12672145664691925
1701290746468268000,8.36626806640625,0.007610515225678682,-0.37751612067222595,-0.08161896467208862
1701290746478343000,8.376343017578124,0.11146660894155502,-0.6482291221618652,-0.11670025438070297
1701290746488418000,8.38641796875,0.19630426168441772,-0.7284227609634399,-0.260387122631073
1701290746498494200,8.396494140625,0.2579897344112396,-0.6291965842247009,-0.4064159691333771
1701290746508569000,8.406569091796875,0.33104369044303894,-0.6191215515136719,-0.3976150155067444
1701290746518644000,8.41664404296875,0.41075238585472107,-0.8255679607391357,-0.22485388815402985
1701290746528720100,8.42672021484375,0.4734298884868622,-1.0434483289718628,-0.04839629307389259
1701290746538795000,8.436794921875,0.5219193696975708,-1.0811491012573242,0.04575017839670181
1701290746548870100,8.4468701171875,0.5242413878440857,-0.9863291382789612,0.151490718126297
1701290746558945000,8.456945068359374,0.46686944365501404,-0.8702967762947083,0.35387498140335083
1701290746569021000,8.46702099609375,0.3817604184150696,-0.7875007390975952,0.5928649306297302
1701290746579096000,8.477095947265624,0.27769580483436584,-0.6942895650863647,0.7517560124397278
1701290746589171000,8.4871708984375,0.1782485693693161,-0.482115238904953,0.8198363184928894
1701290746599246000,8.49724609375,0.11554443836212158,-0.1394026279449463,0.8391996026039124
1701290746609322000,8.507322021484375,0.06049024313688278,0.18561673164367676,0.8425970077514648
1701290746619397000,8.517397216796875,-0.012474779039621353,0.2170417755842209,0.7692239880561829
1701290746629472000,8.527471923828125,-0.15732544660568237,0.04568066820502281,0.6007153987884521
1701290746639548200,8.537548095703125,-0.297601580619812,-0.12418746203184128,0.4018361270427704
1701290746649623000,8.547623046875,-0.3775171935558319,-0.13913577795028687,0.21757200360298157
1701290746659698000,8.557697998046875,-0.3619811236858368,0.008983108215034008,0.09158371388912201
1701290746669773000,8.56777294921875,-0.2536594271659851,0.3278564214706421,0.14460831880569458
1701290746679849200,8.57784912109375,-0.03617984056472778,0.8902209997177124,0.6332128643989563
1701290746689924000,8.587924072265626,0.1928698569536209,1.0595674514770508,1.1792155504226685
1701290746699999000,8.5979990234375,0.21099638938903809,0.5720328688621521,1.0771945714950562
1701290746710075100,8.6080751953125,0.06663255393505096,0.15208913385868073,0.7219792604446411
1701290746720150000,8.61814990234375,-0.07398154586553574,-0.06121515482664108,0.44150310754776
1701290746730225200,8.62822509765625,-0.07406357675790787,-0.13834455609321594,0.35937920212745667
1701290746740300000,8.638300048828125,0.06854816526174545,-0.03627331927418709,0.5072426795959473
1701290746750376000,8.6483759765625,0.29003769159317017,0.19994373619556427,0.793801486492157
1701290746760451000,8.658451171875,0.4800238609313965,0.40029361844062805,1.0099457502365112
1701290746770526000,8.66852587890625,0.6275501847267151,0.46093326807022095,1.0135703086853027
1701290746780601000,8.67860107421875,0.7130861282348633,0.42309826612472534,0.9842894077301025
1701290746790677000,8.688677001953126,0.7440352439880371,0.35851287841796875,1.0392242670059204
1701290746800752000,8.698752197265625,0.8103383779525757,0.2795850336551666,1.147583246231079
1701290746810827000,8.708826904296876,0.9658797979354858,0.1429278552532196,1.2750927209854126
1701290746820903200,8.718903076171875,1.166265845298767,-0.022580942139029503,1.378153681755066
1701290746830978000,8.72897802734375,1.3086544275283813,-0.2116456776857376,1.3699489831924438
1701290746841053000,8.739052978515625,1.3229286670684814,-0.28514304757118225,1.3286662101745605
1701290746851128000,8.749128173828124,1.268176555633545,-0.18573258817195892,1.2537025213241577
1701290746861204200,8.759204345703125,1.221686840057373,-0.05849286913871765,1.1024621725082397
1701290746871279000,8.769279052734374,1.190380573272705,0.09007956087589264,0.9453385472297668
1701290746881354000,8.77935400390625,1.1801244020462036,0.3301331698894501,0.838555634021759
1701290746891428900,8.789428955078124,1.1663955450057983,0.5648641586303711,0.8038602471351624
1701290746901505000,8.799505126953125,1.1193583011627197,0.5834607481956482,0.7718868851661682
1701290746911580200,8.809580078125,1.0487477779388428,0.3785707354545593,0.7105489373207092
1701290746921655000,8.819655029296875,0.9674789905548096,0.15204572677612305,0.615069568157196
1701290746931731000,8.82973095703125,0.8660213351249695,0.035116974264383316,0.5011062622070312
1701290746941806000,8.83980615234375,0.7340388298034668,-0.007610515225678682,0.4368923604488373
1701290746951881000,8.849880859375,0.5846014022827148,-0.05856823921203613,0.43479567766189575
1701290746961956000,8.8599560546875,0.4507826268672943,-0.19556204974651337,0.4572937786579132
1701290746972032000,8.870031982421875,0.37780800461769104,-0.30224719643592834,0.5079737305641174
1701290746982107100,8.880107177734375,0.36739373207092285,-0.32512110471725464,0.5473608374595642
1701290746992182000,8.89018212890625,0.3476855456829071,-0.3018956780433655,0.5122571587562561
1701290747002257200,8.900257080078125,0.2918579578399658,-0.30298542976379395,0.412629097700119
1701290747012333000,8.9103330078125,0.19498440623283386,-0.37395548820495605,0.2818564474582672
1701290747022408000,8.920407958984375,0.08698869496583939,-0.47122958302497864,0.17640246450901031
1701290747032483000,8.930483154296875,-0.030339796096086502,-0.5305166244506836,0.11720545589923859
1701290747042559200,8.940559326171876,-0.14945712685585022,-0.537822425365448,0.08098140358924866
1701290747052634000,8.950634033203125,-0.2587040066719055,-0.501725435256958,0.033132120966911316
1701290747062709000,8.960708984375,-0.33337876200675964,-0.4109902083873749,-0.0409008264541626
1701290747072784000,8.970783935546875,-0.3998962640762329,-0.24664200842380524,-0.11985662579536438
1701290747082860000,8.980860107421876,-0.4784485995769501,-0.04430408030748367,-0.18569156527519226
1701290747092935200,8.99093505859375,-0.5810652375221252,0.13028503954410553,-0.21837814152240753
1701290747103010000,9.001010009765626,-0.6893928050994873,0.22546029090881348,-0.20839208364486694
1701290747113085200,9.011085205078125,-0.7875779271125793,0.30331355333328247,-0.17012086510658264
1701290747123161300,9.021161376953126,-0.8674885034561157,0.41191697120666504,-0.126458078622818
1701290747133236500,9.031236572265625,-0.9339274168014526,0.5829877853393555,-0.08784197270870209
1701290747143311400,9.041311279296876,-0.9838311076164246,0.8007875084877014,-0.06424956023693085
1701290747153387300,9.05138720703125,-1.0197374820709229,1.042405128479004,-0.05267013609409332
1701290747163462400,9.06146240234375,-1.040592908859253,1.2394237518310547,-0.033067405223846436
1701290747173537300,9.071537353515625,-1.0413082838058472,1.3499115705490112,0.015790147706866264
1701290747183612400,9.0816123046875,-1.0343350172042847,1.381311297416687,0.07733926177024841
1701290747193688300,9.091688232421875,-1.0301437377929688,1.3490256071090698,0.13460227847099304
1701290747203763200,9.10176318359375,-1.01404869556427,1.2725483179092407,0.14364585280418396
1701290747213838300,9.11183837890625,-0.9701176881790161,1.1793302297592163,0.10620419681072235
1701290747223913200,9.121913330078126,-0.8889663815498352,1.0823127031326294,0.047153931111097336
1701290747233989000,9.131989013671875,-0.8006916046142578,0.9697432518005371,-0.0036645096261054277
1701290747244064300,9.142064208984374,-0.705936074256897,0.8693034648895264,-0.027521904557943344
1701290747254139100,9.15213916015625,-0.6383261680603027,0.794097900390625,-0.05002428591251373
1701290747264215300,9.16221533203125,-0.6086822152137756,0.7948917746543884,-0.0955294519662857
1701290747274290400,9.17229052734375,-0.5947403311729431,0.8846443295478821,-0.17461255192756653
1701290747284365300,9.182365234375,-0.5824940204620361,1.006901502609253,-0.27827155590057373
1701290747294440200,9.192440185546875,-0.5705808997154236,1.0853099822998047,-0.42340558767318726
1701290747304516400,9.202516357421874,-0.5650764107704163,1.0675475597381592,-0.5865572094917297
1701290747314591500,9.212591552734375,-0.55955570936203,0.9621281623840332,-0.6969252824783325
1701290747324666400,9.222666259765624,-0.5578954815864563,0.8188351988792419,-0.7147245407104492
1701290747334741200,9.2327412109375,-0.5521995425224304,0.690316915512085,-0.6477236747741699
1701290747344817400,9.2428173828125,-0.5066349506378174,0.5848720073699951,-0.5599509477615356
1701290747354892300,9.252892333984375,-0.43261268734931946,0.45249131321907043,-0.4957500994205475
1701290747364967400,9.262967529296875,-0.35827505588531494,0.29918190836906433,-0.46373969316482544
1701290747375043300,9.273043212890625,-0.3126702904701233,0.17265991866588593,-0.44772636890411377
1701290747385118200,9.2831181640625,-0.2934691607952118,0.11539876461029053,-0.41918689012527466
1701290747395193300,9.293193359375,-0.28529778122901917,0.11927259713411331,-0.36867550015449524
1701290747405268200,9.303268310546875,-0.2854064404964447,0.16683931648731232,-0.32906070351600647
1701290747415344000,9.31334423828125,-0.29955369234085083,0.26560503244400024,-0.31492066383361816
1701290747425419300,9.323419189453125,-0.31943657994270325,0.37971511483192444,-0.28997111320495605
1701290747435494100,9.333494140625,-0.3136498034000397,0.47716790437698364,-0.23313525319099426
1701290747445569300,9.3435693359375,-0.26748764514923096,0.5582595467567444,-0.12492009997367859
1701290747455645400,9.3536455078125,-0.2080080658197403,0.6751310229301453,0.025714417919516563
1701290747465720300,9.36372021484375,-0.16992272436618805,0.8733567595481873,0.18125900626182556
1701290747475795200,9.373795166015626,-0.16466644406318665,1.1831897497177124,0.32192638516426086
1701290747485871400,9.383871337890625,-0.18328726291656494,1.5228445529937744,0.42762643098831177
1701290747495946500,9.393946533203126,-0.20476272702217102,1.8513115644454956,0.5210474729537964
1701290747506021400,9.404021484375,-0.237916961312294,2.159919261932373,0.6183633804321289
1701290747516096300,9.41409619140625,-0.2589508593082428,2.3961262702941895,0.7184188365936279
1701290747526172400,9.42417236328125,-0.16879594326019287,2.428209066390991,0.760694146156311
1701290747536247300,9.434247314453126,0.022537266835570335,2.2149698734283447,0.6525322794914246
1701290747546322400,9.444322509765625,0.16739432513713837,1.5994782447814941,0.4798385202884674
1701290747556397300,9.454397216796876,0.25256434082984924,0.7680348753929138,0.2648228704929352
1701290747566473200,9.46447314453125,0.31900754570961,0.2958875894546509,0.025232119485735893
1701290747576548400,9.47454833984375,0.3712390661239624,0.5885894894599915,-0.23970447480678558
1701290747586623200,9.484623291015625,0.4812838137149811,1.159904956817627,-0.3769717812538147
1701290747596699100,9.49469921875,0.611258864402771,1.237170934677124,-0.06154751777648926
1701290747606774300,9.504774169921875,0.6530798077583313,0.7105436325073242,0.588770866394043
1701290747616849200,9.51484912109375,0.4361426830291748,-0.1687898188829422,0.8222786784172058
1701290747626924300,9.52492431640625,0.27793973684310913,-0.6756138801574707,0.6540777087211609
1701290747637000400,9.53500048828125,0.24725505709648132,-0.6064675450325012,0.5223260521888733
1701290747647075300,9.545075439453125,0.23751641809940338,-0.3282111585140228,0.4593561291694641
1701290747657150200,9.555150146484374,0.2763013541698456,0.0028333370573818684,0.362454891204834
1701290747667225300,9.565225341796875,0.22667469084262848,0.3127347528934479,0.2536458373069763
1701290747677301500,9.575301513671874,0.003662645351141691,0.5475515127182007,0.11243972927331924
1701290747687376400,9.58537646484375,-0.2766249477863312,0.6218891143798828,-0.14044632017612457
1701290747697451300,9.595451171875,-0.4922083616256714,0.5249378085136414,-0.527126669883728
1701290747707526100,9.605526123046875,-0.595271110534668,0.2923394441604614,-0.9756613373756409
1701290747717602300,9.615602294921874,-0.5638010501861572,0.1820662021636963,-1.3330724239349365
1701290747727677400,9.625677490234375,-0.5007355213165283,0.43431204557418823,-1.5573809146881104
1701290747737752300,9.63575244140625,-0.4789634048938751,1.0924763679504395,-1.5994462966918945
1701290747747828200,9.645828125,-0.37225133180618286,1.7475508451461792,-0.9546191692352295
1701290747757903400,9.6559033203125,-0.18634644150733948,1.3932164907455444,0.033183254301548004
1701290747767978200,9.665978271484375,-0.09862404316663742,0.6079171299934387,0.3773086667060852
1701290747778053400,9.676053466796875,-0.05174388736486435,0.16085945069789886,0.14181704819202423
1701290747788129300,9.68612939453125,-0.022294387221336365,-0.05312127619981766,-0.08359742164611816
1701290747798204200,9.6962041015625,-0.04963306710124016,-0.05884068086743355,-0.11791571974754333
1701290747808279300,9.706279296875,-0.10266485810279846,0.20786531269550323,-0.027235349640250206
1701290747818355200,9.716355224609375,-0.12949194014072418,0.5739226341247559,0.06392891705036163
1701290747828430300,9.726430419921876,-0.12472329288721085,0.8094531893730164,0.06143779307603836
1701290747838505200,9.736505126953125,-0.12416934967041016,0.8768199682235718,0.003228017594665289
1701290747848580400,9.746580322265626,-0.10950145870447159,0.8075913190841675,-0.07883835583925247
1701290747858656500,9.756656494140625,-0.06782218813896179,0.6891456842422485,-0.15342764556407928
1701290747868731100,9.766731201171876,-0.03835324943065643,0.6332443356513977,-0.21261213719844818
1701290747878806300,9.77680615234375,-0.02797624096274376,0.6491332650184631,-0.24172288179397583
1701290747888881200,9.786881103515626,0.007666441611945629,0.6524060368537903,-0.19050097465515137
1701290747898957300,9.796957275390625,0.07448381930589676,0.581820547580719,-0.07870706170797348
1701290747909032400,9.807032470703126,0.1463066190481186,0.4809945821762085,0.023420104756951332
1701290747919107000,9.817107177734375,0.1980486363172531,0.4300941228866577,0.09175948053598404
1701290747929182200,9.82718212890625,0.2378932535648346,0.4567888379096985,0.13824816048145294
1701290747939258400,9.83725830078125,0.26206570863723755,0.4652286767959595,0.17882780730724335
1701290747949333200,9.847333251953126,0.2855294942855835,0.4085717797279358,0.24960823357105255
1701290747959408400,9.857408447265625,0.2930643558502197,0.3168991208076477,0.31690284609794617
1701290747969484300,9.867484375,0.28721073269844055,0.18053649365901947,0.36055871844291687
1701290747979559200,9.87755908203125,0.2695057690143585,0.09395019710063934,0.41280993819236755
1701290747989634300,9.88763427734375,0.2598038911819458,0.1820526272058487,0.5003927946090698
1701290747999709400,9.89770947265625,0.3041825294494629,0.2162308394908905,0.6020911931991577
1701290748009785300,9.907785400390624,0.2871529459953308,0.05427176132798195,0.6002722382545471
1701290748019860200,9.917860107421875,0.14928749203681946,-0.022115422412753105,0.532285749912262
1701290748029935400,9.927935302734374,0.0024256070610135794,0.13260385394096375,0.4801434278488159
1701290748040010200,9.93801025390625,-0.07602472603321075,0.36709997057914734,0.4436061978340149
1701290748050086100,9.948086181640624,-0.08280140906572342,0.7080605030059814,0.5172447562217712
1701290748060161300,9.958161376953125,0.008139419369399548,1.0470025539398193,0.8043851852416992
1701290748070236200,9.968236083984374,0.13253220915794373,1.0973600149154663,1.082947015762329
1701290748080312300,9.978312255859375,0.15924504399299622,0.8995007872581482,1.0813016891479492
1701290748090387500,9.988387451171874,0.02280491404235363,0.8000404834747314,0.8926071524620056
1701290748100462000,9.998462158203125,-0.11215716600418091,0.8679447174072266,0.7392628788948059
1701290748110537500,10.008537353515624,-0.11576974391937256,0.8905871510505676,0.6526046991348267
1701290748120613400,10.01861328125,-0.029638320207595825,0.930084764957428,0.6424119472503662
1701290748130688500,10.0286884765625,0.08708270639181137,1.0449570417404175,0.759132444858551
1701290748140763600,10.038763671875,0.21025177836418152,1.0541713237762451,0.9484246373176575
1701290748150838300,10.04883837890625,0.29777443408966064,0.9720362424850464,1.0817925930023193
1701290748160914400,10.05891455078125,0.32768625020980835,0.9671511650085449,1.186219573020935
1701290748170989600,10.068989501953125,0.3472522497177124,0.9900178909301758,1.229019284248352
1701290748181064400,10.079064453125,0.3320375978946686,1.0196346044540405,1.2544639110565186
1701290748191140400,10.089140380859375,0.24885696172714233,0.9373855590820312,1.291793942451477
1701290748201215500,10.099215576171876,0.1250188946723938,0.7805488109588623,1.349539041519165
1701290748211290400,10.109290283203125,0.016018914058804512,0.5213963389396667,1.3532447814941406
1701290748221365500,10.119365478515626,-0.03744351118803024,0.27035826444625854,1.2741827964782715
1701290748231441400,10.12944140625,0.03957883641123772,0.19596683979034424,1.2865004539489746
1701290748241516300,10.139516357421876,0.28145936131477356,0.30201098322868347,1.386006236076355
1701290748251591400,10.14959130859375,0.679997980594635,0.5198311805725098,1.548523187637329
1701290748261666600,10.15966650390625,1.0882333517074585,0.6553693413734436,1.645046591758728
1701290748271742500,10.169742431640625,1.4038012027740479,0.669990062713623,1.7304155826568604
1701290748281817300,10.1798173828125,1.6009107828140259,0.5965491533279419,1.8695670366287231
1701290748291892500,10.189892578125,1.6687109470367432,0.5288110971450806,1.934445858001709
1701290748301967400,10.19996728515625,1.670448660850525,0.6374942064285278,1.8911948204040527
1701290748312043500,10.21004345703125,1.6633683443069458,0.9326568245887756,1.7825133800506592
1701290748322118400,10.220118408203126,1.6284273862838745,1.1831319332122803,1.6312953233718872
1701290748332193300,10.230193359375,1.533513069152832,1.170908808708191,1.4997820854187012
1701290748342269400,10.24026953125,1.3244762420654297,1.0000824928283691,1.435988187789917
1701290748352344600,10.250344482421875,1.0815513134002686,0.7040665745735168,1.4059690237045288
1701290748362419500,10.26041943359375,0.9413667321205139,0.4371435046195984,1.3628556728363037
1701290748372494300,10.270494384765625,0.9135350584983826,0.37059351801872253,1.2891247272491455
1701290748382570500,10.280570556640624,0.8927422165870667,0.43181344866752625,1.2074484825134277
1701290748392645400,10.290645263671875,0.8157944083213806,0.5034900307655334,1.1160879135131836
1701290748402720500,10.300720458984374,0.6920357346534729,0.5285786390304565,1.067238688468933
1701290748412795400,10.31079541015625,0.5849870443344116,0.4031165540218353,1.115899682044983
1701290748422871300,10.320871337890624,0.564793586730957,0.13963991403579712,1.2351328134536743
1701290748432946400,10.330946533203125,0.5970199704170227,-0.10284275561571121,1.3335784673690796
1701290748443021600,10.341021484375,0.6061487793922424,-0.23342260718345642,1.3109996318817139
1701290748453097200,10.35109716796875,0.5341107845306396,-0.30375561118125916,1.1521854400634766
1701290748463172400,10.36117236328125,0.3979859948158264,-0.3897871673107147,0.9507200121879578
1701290748473247500,10.37124755859375,0.24792112410068512,-0.4772096872329712,0.8028327822685242
1701290748483322400,10.381322265625,0.11159656941890717,-0.5318282246589661,0.7178859710693359
1701290748493398500,10.3913984375,-0.016756875440478325,-0.6055303812026978,0.6625627875328064
1701290748503473400,10.401473388671874,-0.16098755598068237,-0.6518161296844482,0.6089120507240295
1701290748513548300,10.41154833984375,-0.32165953516960144,-0.6745116114616394,0.5614132881164551
1701290748523623400,10.42162353515625,-0.4824521243572235,-0.6492578983306885,0.5187861919403076
1701290748533699600,10.431699462890625,-0.6166573166847229,-0.5817148089408875,0.4775138199329376
1701290748543774500,10.4417744140625,-0.7325527667999268,-0.4759686589241028,0.4149327576160431
1701290748553849300,10.451849365234375,-0.8272193670272827,-0.3060973286628723,0.3386443555355072
1701290748563925500,10.461925537109375,-0.9018150568008423,-0.08522967994213104,0.2540605068206787
1701290748574000400,10.47200048828125,-0.980371356010437,0.16655223071575165,0.18923144042491913
1701290748584075500,10.482075439453125,-1.066813588142395,0.4489666223526001,0.1336190402507782
1701290748594150400,10.492150390625,-1.1585922241210938,0.7466166615486145,0.0826496034860611
1701290748604226300,10.502226318359375,-1.2630510330200195,1.0494606494903564,0.035706598311662674
1701290748614301400,10.512301513671876,-1.3855167627334595,1.3395553827285767,-0.015793077647686005
1701290748624376600,10.52237646484375,-1.510179042816162,1.5947993993759155,-0.07520101219415665
1701290748634451500,10.532451416015626,-1.6164711713790894,1.7664092779159546,-0.09902139008045197
1701290748644527400,10.54252734375,-1.6957720518112183,1.8776086568832397,-0.08432979136705399
1701290748654602500,10.5526025390625,-1.7308144569396973,1.9828495979309082,-0.021190771833062172
1701290748664677400,10.562677490234375,-1.7280850410461426,2.094367504119873,0.06017891690135002
1701290748674753500,10.57275341796875,-1.6840871572494507,2.234360456466675,0.15114611387252808
1701290748684828400,10.582828369140625,-1.5870522260665894,2.320894241333008,0.23635448515415192
1701290748694903300,10.5929033203125,-1.4220103025436401,2.355546236038208,0.2849654257297516
1701290748704978400,10.602978515625,-1.2656582593917847,2.237340211868286,0.262590616941452
1701290748715054600,10.6130546875,-1.1824579238891602,1.9401123523712158,0.17392519116401672
1701290748725129500,10.62312939453125,-1.1848851442337036,1.5902740955352783,0.07450725883245468
1701290748735204400,10.633204345703126,-1.2057842016220093,1.2892985343933105,-0.007720237597823143
1701290748745279200,10.643279296875,-1.1509087085723877,1.0265867710113525,-0.11684965342283249
1701290748755355400,10.65335546875,-1.0598249435424805,0.7616880536079407,-0.2328561544418335
1701290748765430500,10.663430419921875,-0.9452797174453735,0.5376416444778442,-0.3238486349582672
1701290748775505400,10.67350537109375,-0.7582775950431824,0.43316900730133057,-0.4169982969760895
1701290748785580300,10.683580322265625,-0.49978771805763245,0.4564186632633209,-0.5427389144897461
1701290748795656400,10.693656494140624,-0.2716911733150482,0.5515180230140686,-0.7068213224411011
1701290748805731600,10.703731689453125,-0.14690954983234406,0.6467838287353516,-0.8609911799430847
1701290748815806500,10.713806396484374,-0.08506216108798981,0.6530856490135193,-0.9338707327842712
1701290748825882400,10.72388232421875,-0.05832136422395706,0.6119640469551086,-0.9124575853347778
1701290748835957500,10.73395751953125,-0.08104798197746277,0.5329506993293762,-0.8035750389099121
1701290748846032400,10.744032470703125,-0.1585821807384491,0.4229259490966797,-0.6403008699417114
1701290748856107500,10.754107421875,-0.2128470242023468,0.4235091805458069,-0.4395158588886261
1701290748866183400,10.764183349609375,-0.22750426828861237,0.5494405031204224,-0.2256927788257599
1701290748876258300,10.77425830078125,-0.2297266721725464,0.636964738368988,-0.1373128443956375
1701290748886333400,10.78433349609375,-0.21472083032131195,0.816892683506012,-0.19942869246006012
1701290748896409600,10.79440966796875,-0.1565997302532196,1.2135546207427979,-0.2742632329463959
1701290748906484500,10.804484375,0.00267727579921484,1.4437233209609985,-0.047694019973278046
1701290748916559400,10.814559326171874,0.26884663105010986,1.431666374206543,0.27183496952056885
1701290748926634200,10.82463427734375,0.5105069279670715,1.1793017387390137,0.36461177468299866
1701290748936710400,10.83471044921875,0.656246542930603,0.7017676830291748,0.2596997618675232
1701290748946785500,10.84478564453125,0.7170034050941467,0.22793889045715332,0.09576646983623505
1701290748956860400,10.8548603515625,0.6411600112915039,0.04761332646012306,-0.03206073120236397
1701290748966935300,10.864935302734375,0.48715153336524963,0.283590167760849,-0.2561151385307312
1701290748977011500,10.875011474609375,0.4085182547569275,0.7410078048706055,-0.7050090432167053
1701290748987086600,10.885086669921876,0.2785932719707489,1.0693323612213135,-0.4383254051208496
1701290748997161500,10.895161376953125,0.0666288286447525,0.5537100434303284,0.7093920707702637
1701290749007237400,10.9052373046875,0.07674510776996613,-0.0558379665017128,1.1721570491790771
1701290749017312500,10.9153125,-0.028497155755758286,-0.4434890151023865,0.9841687679290771
1701290749027387400,10.925387451171876,-0.1374390870332718,-0.6653090119361877,0.7032646536827087
1701290749037462500,10.935462646484375,-0.1466807872056961,-0.737235963344574,0.48699283599853516
1701290749047538400,10.945538330078126,-0.07658585160970688,-0.4245334267616272,0.2917751371860504
1701290749057613300,10.95561328125,0.044264666736125946,0.31886667013168335,0.06851913779973984
1701290749067688400,10.9656884765625,0.14050385355949402,0.9490140080451965,-0.1857546865940094
1701290749077763300,10.975763427734375,0.1544867753982544,1.045685887336731,-0.4384883940219879
1701290749087839500,10.985839599609376,0.08948381245136261,0.8448947668075562,-0.6342515349388123
1701290749097914400,10.995914306640625,-0.05325150489807129,0.7964284420013428,-0.8020559549331665
1701290749107989200,11.0059892578125,-0.17000874876976013,1.124058723449707,-0.9185322523117065
1701290749118065700,11.016065673828125,-0.197682186961174,1.6040152311325073,-0.7397499680519104
1701290749128140800,11.026140869140624,-0.19514551758766174,1.7053133249282837,-0.24430161714553833
1701290749138215700,11.036215576171875,-0.18040385842323303,1.3257898092269897,0.1559014469385147
1701290749148290600,11.04629052734375,-0.15726125240325928,0.9286583662033081,0.24893684685230255
1701290749158366700,11.05636669921875,-0.19761987030506134,0.7921679019927979,0.23729564249515533
1701290749168441900,11.06644189453125,-0.26254746317863464,0.8501870036125183,0.3034123480319977
1701290749178516700,11.076516845703125,-0.30425629019737244,0.9537962079048157,0.4310227632522583
1701290749188591600,11.086591552734374,-0.32647666335105896,0.9587041735649109,0.49353888630867004
1701290749198667800,11.096667724609375,-0.3381144106388092,0.8838456273078918,0.4519032835960388
1701290749208742700,11.10674267578125,-0.3326682448387146,0.8318325281143188,0.34111711382865906
1701290749218817800,11.11681787109375,-0.2978697717189789,0.779522180557251,0.20766131579875946
1701290749228892700,11.126892578125,-0.23722560703754425,0.6525000333786011,0.09909382462501526
1701290749238968600,11.136968505859375,-0.1778877079486847,0.4706391394138336,0.0268342774361372
1701290749249043700,11.147043701171874,-0.11286689341068268,0.3412686586380005,-0.008793491870164871
1701290749259118600,11.15711865234375,-0.04364548251032829,0.2969203591346741,-0.011580489575862885
1701290749269194500,11.167194580078124,0.030842866748571396,0.34874626994132996,0.007533283904194832
1701290749279269600,11.17726953125,0.09915854036808014,0.48711666464805603,0.033195238560438156
1701290749289344800,11.1873447265625,0.15302443504333496,0.6014245748519897,0.09046092629432678
1701290749299419600,11.197419677734375,0.20280210673809052,0.5638766884803772,0.19286826252937317
1701290749309495800,11.207495849609375,0.21734750270843506,0.4161985516548157,0.2675155997276306
1701290749319570700,11.21757080078125,0.1763681024312973,0.28913167119026184,0.26021453738212585
1701290749329645600,11.2276455078125,0.1299220472574234,0.26423564553260803,0.2141495794057846
1701290749339720700,11.237720703125,0.10467740893363953,0.30700361728668213,0.21100331842899323
1701290749349796900,11.247796875,0.09900940209627151,0.3955444097518921,0.3121083676815033
1701290749359871700,11.257871826171876,0.0884142816066742,0.4549102485179901,0.5040596723556519
1701290749369946600,11.267946533203125,0.06040235608816147,0.3458114564418793,0.7064293026924133
1701290749380022800,11.278022705078126,-0.006673082709312439,0.1351546198129654,0.7886107563972473
1701290749390097700,11.28809765625,-0.09468948841094971,-0.02268773503601551,0.7587878704071045
1701290749400172800,11.2981728515625,-0.15489956736564636,-0.08409517258405685,0.7007096409797668
1701290749410247700,11.30824755859375,-0.13666224479675293,-0.02665584534406662,0.6641063690185547
1701290749420323600,11.318323486328126,-0.07392003387212753,0.15150749683380127,0.6577938795089722
1701290749430398700,11.328398681640625,0.0091732582077384,0.5306100845336914,0.7141237258911133
1701290749440473600,11.3384736328125,0.10090664029121399,1.0646142959594727,0.955559253692627
1701290749450548700,11.348548828125,0.17920011281967163,1.1670395135879517,1.150952935218811
1701290749460624600,11.358624755859376,0.2237318903207779,0.8498647809028625,1.0752121210098267
1701290749470699800,11.36869970703125,0.2111159712076187,0.6197319626808167,0.9114740490913391
1701290749480774700,11.378774658203126,0.11842917650938034,0.6697112321853638,0.8211159706115723
1701290749490850600,11.3888505859375,0.020011791959404945,0.887190580368042,0.8271881937980652
1701290749500925700,11.39892578125,0.06125057488679886,1.1221985816955566,0.9610618352890015
1701290749511000600,11.40900048828125,0.21197856962680817,1.3078365325927734,1.234616756439209
1701290749521075700,11.41907568359375,0.3863019049167633,1.4115757942199707,1.4467535018920898
1701290749531152000,11.42915185546875,0.5229337811470032,1.4621145725250244,1.4647228717803955
1701290749541226800,11.439226806640624,0.5610939264297485,1.4883275032043457,1.4008469581604004
1701290749551301600,11.449301513671875,0.5656580924987793,1.5034385919570923,1.4589626789093018
1701290749561376500,11.45937646484375,0.5681947469711304,1.3456414937973022,1.5371606349945068
1701290749571452700,11.46945263671875,0.6011396646499634,1.0952353477478027,1.4934802055358887
1701290749581527800,11.47952783203125,0.6615912318229675,0.8680509328842163,1.4693500995635986
1701290749591602700,11.489602783203125,0.7123809456825256,0.653778076171875,1.5091835260391235
1701290749601678600,11.4996787109375,0.8040405511856079,0.4836694598197937,1.5738041400909424
1701290749611753700,11.509753662109375,0.9178488850593567,0.3492019474506378,1.6068675518035889
1701290749621828600,11.51982861328125,1.0331637859344482,0.18591341376304626,1.5374103784561157
1701290749631903700,11.52990380859375,1.1030216217041016,0.05615860968828201,1.5047376155853271
1701290749641979600,11.539979736328124,1.1284819841384888,0.07138097286224365,1.5347459316253662
1701290749652054800,11.5500546875,1.154620885848999,0.254188597202301,1.5261178016662598
1701290749662129700,11.560129638671874,1.1989498138427734,0.671103298664093,1.501888632774353
1701290749672204800,11.570204833984375,1.2464872598648071,1.171051025390625,1.4884530305862427
1701290749682280700,11.58028076171875,1.1913632154464722,1.5009647607803345,1.44801664352417
1701290749692355600,11.59035546875,1.0282819271087646,1.5222288370132446,1.3485506772994995
1701290749702430700,11.6004306640625,0.872019350528717,1.1908798217773438,1.2337567806243896
1701290749712507000,11.6105068359375,0.8012053370475769,0.7696847319602966,1.1721988916397095
1701290749722581500,11.62058154296875,0.7741761207580566,0.5139861106872559,1.1594436168670654
1701290749732656600,11.63065673828125,0.7166678309440613,0.41440489888191223,1.1408941745758057
1701290749742731500,11.6407314453125,0.5783016681671143,0.39183780550956726,1.111575961112976
1701290749752807700,11.6508076171875,0.3908878564834595,0.4012978971004486,1.0841337442398071
1701290749762882800,11.6608828125,0.23664449155330658,0.4280059337615967,1.052390456199646
1701290749772957400,11.67095751953125,0.15728549659252167,0.39938467741012573,1.0284520387649536
1701290749783032600,11.681032470703125,0.13397884368896484,0.33432871103286743,1.024367094039917
1701290749793108700,11.691108642578126,0.11177074164152145,0.29369500279426575,0.9877358078956604
1701290749803183600,11.70118359375,0.05422781780362129,0.2919580936431885,0.8998823761940002
1701290749813258800,11.7112587890625,-0.02149011194705963,0.29973503947257996,0.790217399597168
1701290749823334700,11.721334716796875,-0.11137259751558304,0.2614332139492035,0.6894505620002747
1701290749833409800,11.731409912109376,-0.20552998781204224,0.16700735688209534,0.6150298714637756
1701290749843484700,11.741484619140625,-0.312881737947464,0.05210820958018303,0.5649603009223938
1701290749853559800,11.751559814453126,-0.42390361428260803,-0.05428747460246086,0.5141543745994568
1701290749863635700,11.7616357421875,-0.5187411904335022,-0.0878952369093895,0.4544876217842102
1701290749873710600,11.771710693359376,-0.5993310809135437,-0.022517293691635132,0.3807537257671356
1701290749883785700,11.78178564453125,-0.673125147819519,0.10394158214330673,0.3157220184803009
1701290749893860600,11.791860595703126,-0.7515538930892944,0.2710634469985962,0.28386688232421875
1701290749903936500,11.8019365234375,-0.8205732107162476,0.4028419852256775,0.2859276235103607
1701290749914011600,11.81201171875,-0.8889580965042114,0.44652503728866577,0.3233937621116638
1701290749924086500,11.82208642578125,-0.9524403810501099,0.4461125135421753,0.3866840600967407
1701290749934162700,11.83216259765625,-0.9929676055908203,0.4689762592315674,0.4439079463481903
1701290749944237800,11.84223779296875,-1.0206530094146729,0.5728132128715515,0.47202080488204956
1701290749954312400,11.8523125,-1.0523779392242432,0.7766635417938232,0.46429044008255005
1701290749964387600,11.8623876953125,-1.1190522909164429,1.0176676511764526,0.4505613148212433
1701290749974463700,11.872463623046874,-1.2210407257080078,1.2181639671325684,0.43365344405174255
1701290749984538600,11.88253857421875,-1.311669111251831,1.3678122758865356,0.42867225408554077
1701290749994613800,11.89261376953125,-1.3795075416564941,1.4832725524902344,0.4488861858844757
1701290750004688600,11.902688720703125,-1.4052473306655884,1.5786731243133545,0.49476099014282227
1701290750014764800,11.912764892578124,-1.3682016134262085,1.650046706199646,0.5272486209869385
1701290750024839700,11.922839599609375,-1.2636240720748901,1.7304997444152832,0.5147983431816101
1701290750034914800,11.932914794921874,-1.1412625312805176,1.7804595232009888,0.455137699842453
1701290750044990700,11.94299072265625,-1.0506322383880615,1.8380717039108276,0.35702577233314514
1701290750055065600,11.953065673828124,-1.01602041721344,1.9082130193710327,0.2651011645793915
1701290750065140700,11.963140625,-1.0099114179611206,1.9296140670776367,0.16946732997894287
1701290750075215600,11.973215576171874,-0.9798262119293213,1.8995052576065063,0.03833460435271263
1701290750085291500,11.98329150390625,-0.9242860078811646,1.8234390020370483,-0.14185672998428345
1701290750095366700,11.99336669921875,-0.8407080173492432,1.6274158954620361,-0.3323949873447418
1701290750105441500,12.003441650390625,-0.7316805720329285,1.3291144371032715,-0.4989434778690338
1701290750115516000,12.013515869140624,-0.6003681421279907,1.037217140197754,-0.6260045170783997
1701290750125592000,12.023592041015625,-0.47108548879623413,0.8600585460662842,-0.7166534662246704
1701290750135667200,12.033667236328125,-0.34084680676460266,0.8321171998977661,-0.7665155529975891
1701290750145741800,12.043741943359375,-0.21533042192459106,0.8480911254882812,-0.7580962181091309
1701290750155818000,12.05381787109375,-0.1342552751302719,0.8086478114128113,-0.6976445913314819
1701290750165893000,12.06389306640625,-0.10226698219776154,0.6551485657691956,-0.5691540241241455
1701290750175968000,12.073968017578125,-0.07337035238742828,0.45350995659828186,-0.38939836621284485
1701290750186043100,12.084043212890625,-0.033311083912849426,0.32529181241989136,-0.22589944303035736
1701290750196119000,12.094119140625,-0.0016554208705201745,0.3494541347026825,-0.1406940072774887
1701290750206194200,12.104194091796876,0.02021179534494877,0.5158089995384216,-0.0654493123292923
1701290750216269000,12.11426904296875,0.07473495602607727,0.6866886019706726,0.07571925967931747
1701290750226344200,12.12434423828125,0.21257297694683075,0.7864202857017517,0.24054096639156342
1701290750236420000,12.134420166015625,0.40995875000953674,0.8406931161880493,0.43306541442871094
1701290750246495000,12.144494873046876,0.6357013583183289,1.031101942062378,0.5871362090110779
1701290750256570000,12.154570068359375,0.7956470847129822,1.2364633083343506,0.599237859249115
1701290750266645000,12.16464501953125,0.7439867854118347,1.1798293590545654,0.2782273590564728
1701290750276721000,12.174720947265625,0.4690420627593994,0.8403087854385376,-0.084543377161026
1701290750286796000,12.184796142578126,0.1734199821949005,0.48836594820022583,-0.31047824025154114
1701290750296871000,12.194870849609375,0.04800480976700783,0.47254225611686707,-0.5179110765457153
1701290750306947000,12.204947021484376,0.2853923439979553,0.9722743034362793,-0.31449854373931885
1701290750317022200,12.215022216796875,0.7935109734535217,1.2068002223968506,0.7257792949676514
1701290750327096800,12.225096923828126,0.9768466949462891,0.5093676447868347,1.4318573474884033
1701290750337172000,12.235171875,0.5427780747413635,-0.8154668211936951,0.9441433548927307
1701290750347248000,12.245248046875,0.22762969136238098,-1.4028807878494263,0.5478519201278687
1701290750357323000,12.255322998046875,0.0693708211183548,-1.2944257259368896,0.44946008920669556
1701290750367398100,12.265398193359376,0.07495946437120438,-1.1309247016906738,0.3943345248699188
1701290750377474000,12.27547412109375,0.03911571204662323,-0.9266577959060669,0.4109252095222473
1701290750387549200,12.285549072265624,-0.08338809758424759,-0.4851943850517273,0.41948115825653076
1701290750397624000,12.2956240234375,-0.2784009873867035,0.08387252688407898,0.2636606693267822
1701290750407699200,12.30569921875,-0.4306110441684723,0.6021745204925537,-0.10522575676441193
1701290750417775000,12.315775146484375,-0.44816553592681885,0.7885979413986206,-0.5950295329093933
1701290750427850000,12.32585009765625,-0.32093939185142517,0.5611189603805542,-1.003908634185791
1701290750437925000,12.335925048828125,-0.2198849618434906,0.2501278221607208,-1.2301870584487915
1701290750448000000,12.346,-0.2897774875164032,0.4304957389831543,-1.4157254695892334
1701290750458076000,12.356075927734375,-0.4418754279613495,2.047422170639038,-1.4767968654632568
1701290750468151000,12.366151123046874,-0.3271387219429016,2.770249605178833,-0.6665229201316833
1701290750478226000,12.376225830078125,-0.21042008697986603,1.5928747653961182,0.18835046887397766
1701290750488302000,12.386302001953124,-0.24448004364967346,0.1553400605916977,0.2806881368160248
1701290750498377000,12.396376953125,-0.2998831272125244,-0.4573691487312317,-0.09738114476203918
1701290750508451800,12.406451904296874,-0.3203897178173065,-0.476176917552948,-0.3564891517162323
1701290750518527000,12.41652685546875,-0.3020400106906891,-0.11880228668451309,-0.33912479877471924
1701290750528603100,12.42660302734375,-0.27325817942619324,0.4389542043209076,-0.15620452165603638
1701290750538678000,12.436677978515625,-0.25775936245918274,0.8569328188896179,0.007368167862296104
1701290750548753000,12.4467529296875,-0.2479405552148819,0.9227946400642395,0.039017438888549805
1701290750558828000,12.456828125,-0.23035570979118347,0.7375251650810242,-0.038601722568273544
1701290750568904200,12.466904296875,-0.20972074568271637,0.45899367332458496,-0.1383773237466812
1701290750578979000,12.47697900390625,-0.19406960904598236,0.23943789303302765,-0.21201425790786743
1701290750589054200,12.48705419921875,-0.16901618242263794,0.10851209610700607,-0.24685479700565338
