time,seconds_elapsed,z,y,x
1701290738118384600,0.016384521484375,0.01685553789138794,-0.007711074315011501,-0.031431395560503006
1701290738128459800,0.026459716796875,0.024706803262233734,0.002358071506023407,-0.03909623995423317
1701290738138535000,0.036534912109375,0.02039416879415512,-0.013811532407999039,-0.04415615648031235
1701290738148610800,0.04661083984375,0.015289421193301678,-0.024638880044221878,-0.036442309617996216
1701290738158685700,0.056685791015625,0.012021991424262524,-0.016955526545643806,-0.04611251503229141
1701290738168760800,0.0667607421875,0.015749352052807808,-0.019772350788116455,-0.05512518435716629
1701290738178836700,0.076836669921875,0.01609485223889351,-0.012283232994377613,-0.06072625517845154
1701290738188911600,0.08691162109375,0.023960765451192856,-0.00039221905171871185,-0.07942350953817368
1701290738198986800,0.09698681640625,0.026784617453813553,0.02041497826576233,-0.10687872767448425
1701290738209061600,0.1070615234375,-0.06447738409042358,0.07619621604681015,-0.16008736193180084
1701290738219137800,0.1171376953125,-0.30497458577156067,0.03575162589550018,-0.2270495444536209
1701290738229212700,0.127212646484375,-0.3684856593608856,0.0804796814918518,-0.25483641028404236
1701290738239287600,0.13728759765625,-0.3335670232772827,0.123938649892807,-0.27882370352745056
1701290738249362700,0.14736279296875,-0.3094545006752014,0.14296746253967285,-0.3632270097732544
1701290738259438800,0.15743896484375,-0.31612062454223633,0.10299648344516754,-0.40987491607666016
1701290738269513700,0.167513671875,-0.3021656572818756,0.08641724288463593,-0.39604300260543823
1701290738279588600,0.177588623046875,-0.27960851788520813,0.08921218663454056,-0.37198594212532043
1701290738289664800,0.187664794921875,-0.2494375854730606,0.06468074768781662,-0.35144737362861633
1701290738299739600,0.19773974609375,-0.22879265248775482,0.03464353084564209,-0.358590692281723
1701290738309814800,0.207814697265625,-0.21808753907680511,0.0434599295258522,-0.38379138708114624
1701290738319889700,0.2178896484375,-0.225689098238945,0.09151941537857056,-0.37826913595199585
1701290738329965800,0.2279658203125,-0.2391873300075531,0.1355430781841278,-0.35850396752357483
1701290738340040700,0.238040771484375,-0.25297239422798157,0.12926945090293884,-0.345784991979599
1701290738350115800,0.24811572265625,-0.268025666475296,0.1404603272676468,-0.3234277665615082
1701290738360190700,0.258190673828125,-0.29315799474716187,0.16940630972385406,-0.3177156448364258
1701290738370266600,0.2682666015625,-0.3223283886909485,0.1883549690246582,-0.30703023076057434
1701290738380341800,0.278341796875,-0.35985133051872253,0.18712149560451508,-0.2827763557434082
1701290738390416600,0.288416748046875,-0.3823870122432709,0.19178389012813568,-0.2467523068189621
1701290738400492500,0.298492431640625,-0.3785923719406128,0.2030031979084015,-0.17890729010105133
1701290738410567700,0.308567626953125,-0.40375977754592896,0.2856520116329193,-0.13411451876163483
1701290738420642600,0.318642578125,-0.48325884342193604,0.3879779875278473,-0.15089936554431915
1701290738430717700,0.3287177734375,-0.5754079818725586,0.49149373173713684,-0.14587265253067017
1701290738440793900,0.3387939453125,-0.6822477579116821,0.5773304104804993,-0.11428721994161606
1701290738450868500,0.348868408203125,-0.8432560563087463,0.6817612051963806,-0.10742025822401047
1701290738460943600,0.358943603515625,-1.071681261062622,0.7836707830429077,-0.11649683117866516
1701290738471018800,0.369018798828125,-1.2898386716842651,0.8994567394256592,-0.14863479137420654
1701290738481094700,0.3790947265625,-1.3984791040420532,0.8938210606575012,-0.21050776541233063
1701290738491169800,0.389169677734375,-1.4294897317886353,0.788110077381134,-0.21004436910152435
1701290738501244700,0.39924462890625,-1.4999682903289795,0.6919739246368408,-0.1935775876045227
1701290738511320800,0.40932080078125,-1.6809353828430176,0.6513362526893616,-0.19405056536197662
1701290738521395700,0.419395751953125,-1.9143414497375488,0.6026201248168945,-0.21214674413204193
1701290738531470800,0.429470947265625,-2.0849990844726562,0.5955337285995483,-0.24625571072101593
1701290738541545700,0.439545654296875,-2.1887855529785156,0.6141787767410278,-0.2752460837364197
1701290738551621600,0.44962158203125,-2.221024751663208,0.5780825018882751,-0.23176147043704987
1701290738561696800,0.45969677734375,-2.2402150630950928,0.6187976002693176,-0.09298387914896011
1701290738571771600,0.469771728515625,-2.1738343238830566,0.5035178661346436,-0.07838123291730881
1701290738581846800,0.4798466796875,-2.1158523559570312,0.4827926456928253,-0.08917076885700226
1701290738591922700,0.489922607421875,-2.0245189666748047,0.5026872158050537,-0.14304810762405396
1701290738601997600,0.49999755859375,-1.861160397529602,0.6364961266517639,-0.2705017328262329
1701290738612072700,0.51007275390625,-1.6547571420669556,0.6444041728973389,-0.305533230304718
1701290738622148900,0.52014892578125,-1.4755330085754395,0.5311453938484192,-0.24623386561870575
1701290738632223500,0.530223388671875,-1.291095495223999,0.48830392956733704,-0.2607393264770508
1701290738642298600,0.540298583984375,-1.1534044742584229,0.5489225387573242,-0.284932017326355
1701290738652373800,0.550373779296875,-0.7668846845626831,0.5674152374267578,-0.22496266663074493
1701290738662449700,0.56044970703125,-0.3399062156677246,0.6041772365570068,-0.1310364454984665
1701290738672524800,0.57052490234375,-0.22062669694423676,0.5717857480049133,-0.02802431397140026
1701290738682599700,0.580599609375,-0.544622004032135,0.524685263633728,0.013625744730234146
1701290738692675800,0.59067578125,-1.2201573848724365,0.5135740041732788,0.02592315711081028
1701290738702750700,0.600750732421875,-1.8940180540084839,0.5631112456321716,0.14773029088974
1701290738712825900,0.610825927734375,-1.6495832204818726,0.46315667033195496,0.35454630851745605
1701290738722900700,0.620900634765625,-1.280295729637146,0.21432194113731384,0.477165162563324
1701290738732976600,0.6309765625,-1.013775110244751,-0.01722526177763939,0.47653186321258545
1701290738743051800,0.6410517578125,-0.6943798065185547,-0.22565968334674835,0.388694703578949
1701290738753126700,0.651126708984375,-0.43125200271606445,-0.3517265319824219,0.3448827862739563
1701290738763202600,0.66120263671875,-0.19242683053016663,-0.4699976146221161,0.379437118768692
1701290738773277700,0.671277587890625,0.022929685190320015,-0.5879343748092651,0.40504711866378784
1701290738783352600,0.6813525390625,0.1760687232017517,-0.6020305752754211,0.40024927258491516
1701290738793427700,0.691427734375,0.09112214297056198,-0.6278411149978638,0.454923152923584
1701290738803503900,0.70150390625,-0.29646384716033936,-0.7902374267578125,0.564421534538269
1701290738813578500,0.71157861328125,-0.5539917945861816,-0.3411587178707123,0.23131147027015686
1701290738823653600,0.721653564453125,-0.487508088350296,0.09846272319555283,-0.21233440935611725
1701290738833728800,0.731728759765625,-0.19632552564144135,0.1820865124464035,-0.44041791558265686
1701290738843804700,0.7418046875,0.0797690898180008,0.005021680146455765,-0.4256587624549866
1701290738853879800,0.7518798828125,0.20664368569850922,-0.2416786402463913,-0.3212021291255951
1701290738863954700,0.76195458984375,0.18628309667110443,-0.4715920686721802,-0.26873669028282166
1701290738874030800,0.77203076171875,0.1289106160402298,-0.6581920385360718,-0.2960900366306305
1701290738884105700,0.782105712890625,0.08283313363790512,-0.757063090801239,-0.35737845301628113
1701290738894180900,0.792180908203125,0.062461547553539276,-0.774243950843811,-0.4231998026371002
1701290738904255700,0.802255859375,0.068311907351017,-0.7121215462684631,-0.4513723850250244
1701290738914331600,0.81233154296875,0.10519535094499588,-0.5623006224632263,-0.41209927201271057
1701290738924406800,0.82240673828125,0.1463790088891983,-0.34496548771858215,-0.32591673731803894
1701290738934481700,0.832481689453125,0.19301335513591766,-0.2147640734910965,-0.2656531035900116
1701290738944557600,0.8425576171875,0.24492181837558746,-0.1659466028213501,-0.23236627876758575
1701290738954632700,0.8526328125,0.27672848105430603,-0.13890673220157623,-0.188264861702919
1701290738964707600,0.86270751953125,0.2784334421157837,-0.14684228599071503,-0.17183154821395874
1701290738974782700,0.87278271484375,0.23268459737300873,-0.11212638020515442,-0.15578679740428925
1701290738984858600,0.882858642578125,0.1503487229347229,-0.11011916399002075,-0.11971988528966904
1701290738994933500,0.89293359375,0.04188002273440361,-0.1443474292755127,-0.11272722482681274
1701290739005008600,0.903008544921875,-0.03762989863753319,-0.1274091601371765,-0.1475548893213272
1701290739015083800,0.913083740234375,-0.04337167367339134,-0.11719566583633423,-0.1717100292444229
1701290739025159700,0.92315966796875,-0.01142173819243908,-0.11276816576719284,-0.15726318955421448
1701290739035234800,0.93323486328125,-0.0050850119441747665,-0.07582852244377136,-0.11841300129890442
1701290739045309700,0.943309814453125,-0.008007025346159935,-0.026693731546401978,-0.10757472366094589
1701290739055385900,0.9533857421875,-0.015297429636120796,-0.006276607513427734,-0.13489343225955963
1701290739065460700,0.963460693359375,-0.024266686290502548,-0.03064865618944168,-0.16261906921863556
1701290739075536000,0.973535888671875,-0.015007407404482365,-0.08536143600940704,-0.19563932716846466
1701290739085610800,0.98361083984375,0.005145630799233913,-0.15503500401973724,-0.227830708026886
1701290739095686700,0.993686767578125,0.021145902574062347,-0.23407922685146332,-0.26215940713882446
1701290739105761000,1.003760986328125,0.03458944708108902,-0.30674922466278076,-0.28591489791870117
1701290739115836000,1.0138359375,0.03709547966718674,-0.335611492395401,-0.3004072904586792
1701290739125912000,1.023912109375,0.03812186419963837,-0.32807299494743347,-0.2913261651992798
1701290739135987000,1.033987060546875,0.032934561371803284,-0.30209866166114807,-0.26889941096305847
1701290739146061800,1.044061767578125,0.02497757412493229,-0.28888964653015137,-0.24384759366512299
1701290739156137000,1.054136962890625,0.014066069386899471,-0.2695454955101013,-0.23083165287971497
1701290739166213000,1.064213134765625,-0.027973715215921402,-0.2408887892961502,-0.21705852448940277
1701290739176288000,1.0742880859375,-0.055074576288461685,-0.20610551536083221,-0.21282249689102173
1701290739186363000,1.08436279296875,-0.05791953206062317,-0.19332723319530487,-0.21829651296138763
1701290739196438000,1.09443798828125,-0.05913979187607765,-0.1873502880334854,-0.22669638693332672
1701290739206514000,1.104513916015625,-0.05866476520895958,-0.18988405168056488,-0.23595602810382843
1701290739216589000,1.114589111328125,-0.04790213331580162,-0.1998394876718521,-0.23818962275981903
1701290739226664200,1.124664306640625,-0.03997356817126274,-0.2148817777633667,-0.2490144968032837
1701290739236739800,1.13473974609375,-0.04755665361881256,-0.215785413980484,-0.2673117518424988
1701290739246815000,1.14481494140625,-0.05360005795955658,-0.232375368475914,-0.2765463888645172
1701290739256890000,1.15489013671875,-0.05447783321142197,-0.2556340992450714,-0.2863428294658661
1701290739266965000,1.164965087890625,-0.048635758459568024,-0.26524481177330017,-0.30069500207901
1701290739277041000,1.175041015625,-0.04718247428536415,-0.2786858081817627,-0.3081023097038269
1701290739287116000,1.185115966796875,-0.03869425132870674,-0.28370270133018494,-0.30673056840896606
1701290739297191000,1.19519091796875,-0.025894565507769585,-0.28071996569633484,-0.28697845339775085
1701290739307266000,1.20526611328125,-0.02158372662961483,-0.27941861748695374,-0.2493932843208313
1701290739317342000,1.215342041015625,-0.019795147702097893,-0.2863766551017761,-0.2078319936990738
1701290739327416800,1.225416748046875,-0.013820875436067581,-0.26648059487342834,-0.18007172644138336
1701290739337492000,1.235491943359375,-0.0013756572734564543,-0.2306051403284073,-0.16756339371204376
1701290739347568000,1.245568115234375,0.01914258301258087,-0.1878080517053604,-0.1499014049768448
1701290739357643000,1.25564306640625,0.026969879865646362,-0.15733695030212402,-0.12395154684782028
1701290739367718000,1.2657177734375,0.031827494502067566,-0.1372484564781189,-0.09229054301977158
1701290739377793000,1.27579296875,0.0225871242582798,-0.10993054509162903,-0.0642424002289772
1701290739387869000,1.285868896484375,0.01977907121181488,-0.08796374499797821,-0.05274449288845062
1701290739397944000,1.295944091796875,0.025116844102740288,-0.07671748846769333,-0.06676310300827026
1701290739408019000,1.30601904296875,0.03348858654499054,-0.08216213434934616,-0.0975898951292038
1701290739418094800,1.3160947265625,0.027734562754631042,-0.12455327063798904,-0.1241980716586113
1701290739428170000,1.326169921875,0.010250026360154152,-0.18340690433979034,-0.1345786303281784
1701290739438245000,1.3362451171875,-0.012249689549207687,-0.22548964619636536,-0.12429562956094742
1701290739448320000,1.346320068359375,-0.02059498429298401,-0.2439402937889099,-0.12327831238508224
1701290739458396000,1.35639599609375,-0.01613738387823105,-0.22192606329917908,-0.14559586346149445
1701290739468471000,1.366470947265625,-0.020962132140994072,-0.1755358874797821,-0.18433810770511627
1701290739478546000,1.3765458984375,-0.0324893593788147,-0.14621688425540924,-0.1994992047548294
1701290739488621000,1.38662109375,-0.04809202626347542,-0.14521673321723938,-0.1853349208831787
1701290739498697000,1.396697021484375,-0.06877625733613968,-0.13769756257534027,-0.16210070252418518
1701290739508771800,1.406771728515625,-0.09607356786727905,-0.08406943827867508,-0.14970360696315765
1701290739518847000,1.416846923828125,-0.12225723266601562,-0.0019410145469009876,-0.14931371808052063
1701290739528923100,1.426923095703125,-0.14313074946403503,0.08590858429670334,-0.13221241533756256
1701290739538998000,1.436998046875,-0.11864404380321503,0.13993319869041443,-0.10037299245595932
1701290739549073000,1.447072998046875,-0.09242318570613861,0.15090444684028625,-0.05713319405913353
1701290739559148000,1.45714794921875,-0.08396631479263306,0.14437490701675415,-0.010109491646289825
1701290739569224000,1.467223876953125,-0.08171123266220093,0.14119943976402283,0.037450484931468964
1701290739579299000,1.477299072265625,-0.07523016631603241,0.15364386141300201,0.07139699906110764
1701290739589374000,1.4873740234375,-0.06774154305458069,0.18152867257595062,0.08197835832834244
1701290739599448800,1.49744873046875,-0.05077506974339485,0.19812415540218353,0.07180535048246384
1701290739609525000,1.50752490234375,-0.02607017196714878,0.1605450063943863,0.04933341220021248
1701290739619600100,1.51760009765625,0.001110049313865602,0.07454407960176468,0.01858641766011715
1701290739629675000,1.527675048828125,0.02281508781015873,0.0030615096911787987,-0.01874096877872944
1701290739639751000,1.5377509765625,0.04687328636646271,-0.0218728668987751,-0.05856241658329964
1701290739649826000,1.547825927734375,0.06373490393161774,-0.004370001144707203,-0.075860895216465
1701290739659901000,1.55790087890625,0.057401109486818314,0.040416114032268524,-0.06886344403028488
1701290739669976000,1.56797607421875,0.025687551125884056,0.02536480873823166,-0.04265858232975006
1701290739680052000,1.578052001953125,0.004450439475476742,-0.05626374110579491,-0.016126304864883423
1701290739690126800,1.588126953125,-0.003933357074856758,-0.11587801575660706,-0.021843740716576576
1701290739700202000,1.598201904296875,-0.01838899590075016,-0.13712498545646667,-0.05760999396443367
1701290739710277000,1.608277099609375,-0.03774005174636841,-0.13430629670619965,-0.10422968864440918
1701290739720352800,1.618352783203125,-0.060778792947530746,-0.15661878883838654,-0.1525340974330902
1701290739730428000,1.628427978515625,-0.07027803361415863,-0.19338452816009521,-0.18980053067207336
1701290739740503000,1.6385029296875,-0.05407962203025818,-0.23352661728858948,-0.2247808873653412
1701290739750579000,1.648578857421875,-0.03221399337053299,-0.2735150456428528,-0.27825021743774414
1701290739760654000,1.658654052734375,-0.02445114403963089,-0.32210201025009155,-0.3329680562019348
1701290739770729000,1.66872900390625,-0.015893705189228058,-0.3727438151836395,-0.36827021837234497
1701290739780803800,1.678803955078125,-0.004522006493061781,-0.4163791835308075,-0.3780847489833832
1701290739790880000,1.6888798828125,-0.0013856018194928765,-0.4284563660621643,-0.38109785318374634
1701290739800955100,1.698955078125,0.0008011197205632925,-0.418730765581131,-0.37005800008773804
1701290739811030000,1.709030029296875,-0.01924671232700348,-0.42520466446876526,-0.33042892813682556
1701290739821105000,1.71910498046875,-0.04231021925806999,-0.4545772075653076,-0.2580021321773529
1701290739831181000,1.72918115234375,-0.04813845828175545,-0.4441748559474945,-0.1685027778148651
1701290739841256000,1.739255859375,-0.048434868454933167,-0.36552107334136963,-0.10454031080007553
1701290739851331000,1.7493310546875,-0.03912871703505516,-0.2911429703235626,-0.07903282344341278
1701290739861407000,1.759406982421875,-0.024712231010198593,-0.2816469371318817,-0.0779864639043808
1701290739871481900,1.76948193359375,-0.004757702816277742,-0.31521421670913696,-0.08713869005441666
1701290739881557000,1.779556884765625,0.026757346466183662,-0.340842068195343,-0.11156706511974335
1701290739891632000,1.789632080078125,0.0586872361600399,-0.32107627391815186,-0.13813218474388123
1701290739901707800,1.799707763671875,0.09057539701461792,-0.23132561147212982,-0.13365353643894196
1701290739911783000,1.809782958984375,0.10572114586830139,-0.1064588651061058,-0.08143098652362823
1701290739921858000,1.819858154296875,0.11572398245334625,0.023991821333765984,-0.0029556211084127426
1701290739931933000,1.829932861328125,0.12076880782842636,0.1521652340888977,0.06875558197498322
1701290739942009000,1.840009033203125,0.1377888023853302,0.18927904963493347,0.1004440039396286
1701290739952084000,1.850083984375,0.15508122742176056,0.12217723578214645,0.09626602381467819
1701290739962158800,1.860158935546875,0.15572598576545715,0.03908022493124008,0.08747600018978119
1701290739972235000,1.870235107421875,0.14265954494476318,-0.014436749741435051,0.0570438876748085
1701290739982310100,1.88031005859375,0.12102003395557404,-0.04336906597018242,0.013247404247522354
1701290739992385000,1.890385009765625,0.10619616508483887,-0.08469022810459137,-0.025616014376282692
1701290740002460000,1.9004599609375,0.10419107228517532,-0.15553563833236694,-0.046570565551519394
1701290740012536000,1.9105361328125,0.1265745908021927,-0.27120527625083923,-0.0707542896270752
1701290740022611000,1.92061083984375,0.11473257839679718,-0.31522759795188904,-0.07007917761802673
1701290740032686000,1.93068603515625,0.09444709867238998,-0.25183141231536865,-0.027885030955076218
1701290740042761000,1.940760986328125,0.10015399008989334,-0.14000821113586426,0.057099901139736176
1701290740052836900,1.9508369140625,0.12543758749961853,-0.10476043075323105,0.17544341087341309
1701290740062912000,1.960912109375,0.15796491503715515,-0.1867346614599228,0.294734925031662
1701290740072987100,1.970987060546875,0.19248250126838684,-0.33772894740104675,0.3683445155620575
1701290740083062800,1.981062744140625,0.22926421463489532,-0.4815817177295685,0.4243539869785309
1701290740093138000,1.991137939453125,0.25554996728897095,-0.5290185213088989,0.4844578802585602
1701290740103213000,2.001213134765625,0.2787562310695648,-0.4528915286064148,0.519014835357666
1701290740113288400,2.011288330078125,0.3170398473739624,-0.3379156291484833,0.538926899433136
1701290740123364400,2.0213642578125,0.3677560091018677,-0.3488292694091797,0.5939671993255615
1701290740133439500,2.031439453125,0.37763670086860657,-0.42908620834350586,0.6498284935951233
1701290740143514400,2.041514404296875,0.3391532301902771,-0.4784838557243347,0.6992285251617432
1701290740153589500,2.051589599609375,0.29488468170166016,-0.4583039879798889,0.7761539816856384
1701290740163665400,2.06166552734375,0.296018123626709,-0.34645363688468933,0.843278706073761
1701290740173740300,2.071740234375,0.3345631957054138,-0.26390209794044495,0.8579155802726746
1701290740183815400,2.0818154296875,0.3193964958190918,-0.16073498129844666,0.8830100297927856
1701290740193891600,2.0918916015625,0.24854886531829834,-0.04185111075639725,0.9209598898887634
1701290740203966500,2.101966552734375,0.19236016273498535,0.09668705612421036,1.0526963472366333
1701290740214041300,2.112041259765625,0.19166091084480286,0.25439006090164185,1.1847381591796875
1701290740224116200,2.1221162109375,0.1759440004825592,0.44996434450149536,0.963535487651825
1701290740234192400,2.1321923828125,0.031073452904820442,0.5099263787269592,0.5836215019226074
1701290740244267500,2.142267578125,-0.18250326812267303,0.3622943162918091,0.3432602882385254
1701290740254342400,2.15234228515625,-0.3438451290130615,0.08588199317455292,0.2810429036617279
1701290740264417500,2.16241748046875,-0.4393455684185028,-0.10866352170705795,0.3599206805229187
1701290740274493400,2.172493408203125,-0.4756620228290558,-0.2097904086112976,0.45914924144744873
1701290740284568300,2.182568359375,-0.4006834030151367,-0.2901390492916107,0.5976405143737793
1701290740294643500,2.1926435546875,-0.24028606712818146,-0.17086955904960632,0.8630965948104858
1701290740304719400,2.20271923828125,-0.04895632341504097,-0.06841987371444702,1.1293240785598755
1701290740314794500,2.21279443359375,0.06963735073804855,-0.2857545018196106,1.0932378768920898
1701290740324869400,2.222869384765625,0.02545471116900444,-0.5433074831962585,0.9405417442321777
1701290740334944500,2.232944580078125,-0.1547367125749588,-0.628700315952301,0.8881202936172485
1701290740345020400,2.2430205078125,-0.3065060079097748,-0.6289548873901367,0.8569437265396118
1701290740355095300,2.25309521484375,-0.306673526763916,-0.5775661468505859,0.8107240796089172
1701290740365170400,2.26317041015625,-0.1735607236623764,-0.41586166620254517,0.8296311497688293
1701290740375245300,2.273245361328125,0.09239574521780014,-0.1797553151845932,0.9972097277641296
1701290740385321500,2.283321533203125,0.48696598410606384,0.053196173161268234,1.309691071510315
1701290740395396400,2.293396240234375,0.9132044911384583,0.19647327065467834,1.5827531814575195
1701290740405471200,2.30347119140625,1.2443734407424927,0.1315230280160904,1.6624761819839478
1701290740415547400,2.31354736328125,1.4201843738555908,-0.14966896176338196,1.631037950515747
1701290740425622500,2.32362255859375,1.4056360721588135,-0.5214638113975525,1.5341931581497192
1701290740435697400,2.333697509765625,1.2013792991638184,-0.7988741397857666,1.4066396951675415
1701290740445772300,2.343772216796875,0.9206867218017578,-0.9000838398933411,1.2504969835281372
1701290740455848400,2.353848388671875,0.688814640045166,-0.827928364276886,1.0776838064193726
1701290740465923300,2.36392333984375,0.5555756688117981,-0.6277403831481934,0.880850076675415
1701290740475998500,2.37399853515625,0.516188383102417,-0.39305782318115234,0.6902852654457092
1701290740486073600,2.384073486328125,0.561985969543457,-0.2586214542388916,0.5434790253639221
1701290740496149500,2.3941494140625,0.589148223400116,-0.23347091674804688,0.46886640787124634
1701290740506224400,2.404224365234375,0.5922505259513855,-0.2289467453956604,0.45280835032463074
1701290740516299500,2.414299560546875,0.5942418575286865,-0.23348695039749146,0.3844504952430725
1701290740526375400,2.42437548828125,0.5661695003509521,-0.21195156872272491,0.24800607562065125
1701290740536450300,2.4344501953125,0.48952385783195496,-0.14678582549095154,0.15986782312393188
1701290740546525400,2.444525390625,0.38979673385620117,-0.09856715798377991,0.15260271728038788
1701290740556600300,2.454600341796875,0.3196296989917755,-0.10797619819641113,0.14350968599319458
1701290740566676500,2.464676513671875,0.2620769143104553,-0.15314023196697235,0.08621364831924438
1701290740576751400,2.47475146484375,0.20691505074501038,-0.2320629060268402,0.0006001441506668925
1701290740586826200,2.484826171875,0.15220732986927032,-0.29932528734207153,-0.08696325868368149
1701290740596901400,2.4949013671875,0.11875881999731064,-0.27078062295913696,-0.14164356887340546
1701290740606977500,2.5049775390625,0.10522543638944626,-0.1267898827791214,-0.15091003477573395
1701290740617052400,2.515052490234375,0.09390824288129807,0.007587321102619171,-0.18509818613529205
1701290740627127300,2.525127197265625,0.07071423530578613,0.09259249269962311,-0.287626177072525
1701290740637203500,2.535203369140625,0.03790641576051712,0.18898902833461761,-0.4131340980529785
1701290740647278300,2.5452783203125,-0.015157335437834263,0.2742948830127716,-0.5325656533241272
1701290740657353500,2.555353515625,-0.08913037925958633,0.32132893800735474,-0.6225331425666809
1701290740667428600,2.5654287109375,-0.17752708494663239,0.32539108395576477,-0.6888778209686279
1701290740677504500,2.57550439453125,-0.2670576870441437,0.3205644190311432,-0.7466217279434204
1701290740687579400,2.585579345703125,-0.36474481225013733,0.3502916991710663,-0.8119916915893555
1701290740697654500,2.595654541015625,-0.4495510756969452,0.42500120401382446,-0.8496154546737671
1701290740707729400,2.6057294921875,-0.5267888307571411,0.5415443181991577,-0.8326029181480408
1701290740717805300,2.615805419921875,-0.5800323486328125,0.634651243686676,-0.7141420841217041
1701290740727880400,2.62588037109375,-0.6126390695571899,0.6762495636940002,-0.533411979675293
1701290740737955300,2.635955322265625,-0.6134936213493347,0.6693892478942871,-0.38469088077545166
1701290740748031500,2.646031494140625,-0.5968957543373108,0.654532253742218,-0.3438803553581238
1701290740758106400,2.6561064453125,-0.5581018328666687,0.6348368525505066,-0.38039371371269226
1701290740768181200,2.66618115234375,-0.5206682085990906,0.5905282497406006,-0.4690152108669281
1701290740778256400,2.67625634765625,-0.4931546151638031,0.5193487405776978,-0.6103439331054688
1701290740788332500,2.68633251953125,-0.4909955859184265,0.42619994282722473,-0.7859852313995361
1701290740798407400,2.696407470703125,-0.4916250705718994,0.31374719738960266,-0.9406991600990295
1701290740808482300,2.706482421875,-0.49129191040992737,0.20971588790416718,-1.0035529136657715
1701290740818557400,2.716557373046875,-0.4689120352268219,0.12490977346897125,-0.9500635862350464
1701290740828633300,2.72663330078125,-0.4157886505126953,0.07548204064369202,-0.814629077911377
1701290740838708500,2.73670849609375,-0.35158756375312805,0.0820774957537651,-0.6836736798286438
1701290740848783600,2.74678369140625,-0.27685073018074036,0.12624575197696686,-0.5933179259300232
1701290740858859500,2.756859619140625,-0.2088438868522644,0.1823030710220337,-0.5410038232803345
1701290740868934400,2.766934326171875,-0.1437876671552658,0.196178138256073,-0.5261321663856506
1701290740879009500,2.777009521484375,-0.06519103795289993,0.16742217540740967,-0.5480566024780273
1701290740889084400,2.78708447265625,0.01300336979329586,0.12299957871437073,-0.5991706252098083
1701290740899160300,2.797160400390625,0.06918194890022278,0.1378934532403946,-0.6508205533027649
1701290740909235500,2.8072353515625,0.11271770298480988,0.29232773184776306,-0.6370240449905396
1701290740919310300,2.817310302734375,0.15452153980731964,0.5167968273162842,-0.5544759631156921
1701290740929386500,2.827386474609375,0.17097161710262299,0.7123926877975464,-0.434121310710907
1701290740939461400,2.83746142578125,0.15681883692741394,0.7926607728004456,-0.2853493392467499
1701290740949536300,2.847536376953125,0.11859369277954102,0.7580271363258362,-0.1406094878911972
1701290740959611400,2.857611328125,0.0729532465338707,0.6987621188163757,-0.04790135845541954
1701290740969687600,2.8676875,0.0514647401869297,0.6636816263198853,-0.032829198986291885
1701290740979762400,2.877762451171875,0.052486419677734375,0.6378198266029358,-0.09011156857013702
1701290740989837300,2.88783740234375,0.06252174079418182,0.5994343161582947,-0.17897272109985352
1701290740999912400,2.897912353515625,0.059974513947963715,0.5689491629600525,-0.25789114832878113
1701290741009988400,2.90798828125,0.010651974007487297,0.5875968933105469,-0.3286904990673065
1701290741020063500,2.9180634765625,-0.022875450551509857,0.621029257774353,-0.35580742359161377
1701290741030138400,2.928138427734375,0.017093004658818245,0.7005831599235535,-0.26079514622688293
1701290741040213200,2.938213134765625,0.16058573126792908,0.8640943765640259,0.03482504189014435
1701290741050289400,2.948289306640625,0.3530880808830261,1.0117796659469604,0.3381305932998657
1701290741060364500,2.958364501953125,0.5090025663375854,0.9304701089859009,0.3368746340274811
1701290741070439400,2.968439453125,0.5724252462387085,0.48534318804740906,0.09470967203378677
1701290741080515300,2.978515380859375,0.5468881726264954,-0.009805826470255852,-0.060645557940006256
1701290741090590500,2.988590576171875,0.3930346965789795,-0.20894582569599152,0.04288003593683243
1701290741100665300,2.998665283203125,0.1854245811700821,-0.0874694213271141,0.2574020028114319
1701290741110740500,3.008740478515625,0.057860493659973145,-0.08064772933721542,0.429355651140213
1701290741120816400,3.01881640625,0.050697844475507736,-0.3676113486289978,0.45435333251953125
1701290741130891500,3.0288916015625,0.10446280241012573,-0.6677330732345581,0.362615168094635
1701290741140966400,3.03896630859375,0.12528811395168304,-0.546024739742279,0.28213435411453247
1701290741151042600,3.04904248046875,0.09549639374017715,-0.18054524064064026,0.23409679532051086
1701290741161117400,3.059117431640625,0.08245596289634705,0.06506838649511337,0.21858681738376617
1701290741171192300,3.0691923828125,0.08868402987718582,0.146438866853714,0.18144690990447998
1701290741181267500,3.079267333984375,0.03941935673356056,0.15664534270763397,0.07865294814109802
1701290741191343600,3.089343505859375,-0.09538399428129196,0.10302871465682983,-0.11843881011009216
1701290741201418500,3.09941845703125,-0.2710191309452057,0.07269789278507233,-0.37590858340263367
1701290741211493400,3.109493408203125,-0.4286651909351349,0.17280663549900055,-0.6464913487434387
1701290741221568300,3.119568359375,-0.4742160737514496,0.4599068760871887,-0.8250756859779358
1701290741231644400,3.12964453125,-0.4178691804409027,0.8633340001106262,-0.8833222389221191
1701290741241719600,3.139719482421875,-0.30790674686431885,1.1550346612930298,-0.7914194464683533
1701290741251794700,3.149794677734375,-0.19744732975959778,1.2060632705688477,-0.5221578478813171
1701290741261870300,3.159870361328125,-0.1695471704006195,0.8985925316810608,-0.212504580616951
1701290741271945500,3.169945556640625,-0.225214421749115,0.4430263936519623,-0.16770222783088684
1701290741282020600,3.1800205078125,-0.27400699257850647,0.15696731209754944,-0.3585406243801117
1701290741292095500,3.190095458984375,-0.3119290769100189,0.010230864398181438,-0.47864413261413574
1701290741302171400,3.20017138671875,-0.3593611419200897,0.018628571182489395,-0.498102068901062
1701290741312246500,3.21024658203125,-0.4172723889350891,0.1668606400489807,-0.4613608419895172
1701290741322321400,3.2203212890625,-0.4582292139530182,0.32272103428840637,-0.425197035074234
1701290741332396500,3.230396484375,-0.46693429350852966,0.38415616750717163,-0.4143161475658417
1701290741342472400,3.240472412109375,-0.44719964265823364,0.3130969703197479,-0.41839393973350525
1701290741352547300,3.25054736328125,-0.42221173644065857,0.14596308767795563,-0.43199682235717773
1701290741362622500,3.26062255859375,-0.3795989453792572,-0.017527252435684204,-0.43036553263664246
1701290741372698600,3.27069873046875,-0.32197055220603943,-0.08733456581830978,-0.4276301860809326
1701290741382773500,3.2807734375,-0.2554539144039154,-0.0679573193192482,-0.436307430267334
1701290741392848400,3.290848388671875,-0.18653877079486847,0.002165841870009899,-0.43567386269569397
1701290741402923300,3.30092333984375,-0.1000845655798912,0.08061164617538452,-0.37632450461387634
1701290741412999400,3.31099951171875,0.019535310566425323,0.08587778359651566,-0.23026607930660248
1701290741423074600,3.321074462890625,0.15070931613445282,-0.01192441489547491,-0.04908645898103714
1701290741433149700,3.331149658203125,0.24179048836231232,-0.14565317332744598,0.08035781234502792
1701290741443224300,3.341224365234375,0.286546915769577,-0.3102264702320099,0.11390209943056107
1701290741453300500,3.351300537109375,0.3032763600349426,-0.5076085329055786,0.14043091237545013
1701290741463375600,3.361375732421875,0.25306248664855957,-0.5999531149864197,0.23549939692020416
1701290741473450500,3.371450439453125,0.168676495552063,-0.5826238989830017,0.3997144103050232
1701290741483526400,3.3815263671875,0.12411168962717056,-0.556968629360199,0.5657355785369873
1701290741493601500,3.3916015625,0.1327666938304901,-0.4926455616950989,0.689482569694519
1701290741503676400,3.401676513671875,0.1339624673128128,-0.331630140542984,0.8184741139411926
1701290741513751600,3.41175146484375,0.06881409138441086,-0.161812886595726,0.976028323173523
1701290741523827500,3.421827392578125,-0.03118237294256687,-0.10906423628330231,1.1163526773452759
1701290741533902300,3.43190234375,-0.09241297841072083,-0.11144936084747314,1.1639755964279175
1701290741543977500,3.4419775390625,-0.11404449492692947,-0.07995255291461945,1.1234952211380005
1701290741554052400,3.45205224609375,-0.1093413457274437,0.025529935956001282,1.0898629426956177
1701290741564128500,3.46212841796875,-0.08375318348407745,0.2955843210220337,1.1368639469146729
1701290741574203400,3.472203369140625,-0.010697880759835243,0.48462000489234924,1.1222394704818726
1701290741584278300,3.4822783203125,0.0806969404220581,0.3977828323841095,0.9865404963493347
1701290741594354400,3.4923544921875,0.08018933981657028,0.1602781116962433,0.8283127546310425
1701290741604429600,3.5024296875,0.039148155599832535,0.004533789120614529,0.834405243396759
1701290741614504400,3.51250439453125,0.10499801486730576,0.1834939569234848,1.109753966331482
1701290741624579300,3.522579345703125,0.24734850227832794,0.3949688971042633,1.4432991743087769
1701290741634655500,3.532655517578125,0.34284573793411255,0.28339603543281555,1.4617972373962402
1701290741644730600,3.542730712890625,0.38908860087394714,0.12226814031600952,1.419974684715271
1701290741654805500,3.552805419921875,0.3762987554073334,0.09490549564361572,1.4689816236495972
1701290741664880600,3.562880615234375,0.3895321786403656,0.162481427192688,1.5809928178787231
1701290741674956500,3.57295654296875,0.48869311809539795,0.27077728509902954,1.7430408000946045
1701290741685031400,3.583031494140625,0.6261351108551025,0.31138622760772705,1.819664716720581
1701290741695106600,3.5931064453125,0.7706129550933838,0.24050618708133698,1.8232474327087402
1701290741705182500,3.603182373046875,0.8905268311500549,0.03742564469575882,1.7689578533172607
1701290741715257300,3.61325732421875,1.0068141222000122,-0.12582001090049744,1.6672346591949463
1701290741725332500,3.62333251953125,1.1798784732818604,-0.08317391574382782,1.556895136833191
1701290741735407400,3.633407470703125,1.4174950122833252,0.183376282453537,1.3904310464859009
1701290741745483500,3.6434833984375,1.667672038078308,0.4634721279144287,1.166980266571045
1701290741755558400,3.653558349609375,1.7407883405685425,0.7408714890480042,1.0370327234268188
1701290741765633500,3.663633544921875,1.284708857536316,0.7572059035301208,0.9273294806480408
1701290741775708400,3.67370849609375,0.7846184968948364,0.3731759488582611,0.7633970379829407
1701290741785784600,3.68378466796875,0.575436532497406,-0.22521516680717468,0.5739495754241943
1701290741795859500,3.693859375,0.5083190202713013,-0.59649658203125,0.4272400438785553
1701290741805934300,3.703934326171875,0.4361880123615265,-0.5589441657066345,0.36162900924682617
1701290741816010500,3.714010498046875,0.36179259419441223,-0.3505725860595703,0.27153480052948
1701290741826085600,3.724085693359375,0.3410947918891907,-0.0628068596124649,0.15824098885059357
1701290741836160500,3.734160400390625,0.36382779479026794,0.19106216728687286,0.10571679472923279
1701290741846235400,3.7442353515625,0.3965432941913605,0.26763132214546204,0.10655055940151215
1701290741856311600,3.7543115234375,0.3994637131690979,0.18260806798934937,0.08973243087530136
1701290741866386400,3.764386474609375,0.34906697273254395,-0.01174500584602356,-0.020413178950548172
1701290741876461600,3.774461669921875,0.2729378342628479,-0.23315702378749847,-0.20862676203250885
1701290741886536400,3.784536376953125,0.20628805458545685,-0.39349326491355896,-0.40493279695510864
1701290741896612400,3.7946123046875,0.14620767533779144,-0.47865474224090576,-0.5771149396896362
1701290741906687500,3.8046875,0.07981463521718979,-0.5133841633796692,-0.7069582939147949
1701290741916762400,3.814762451171875,-0.01689326763153076,-0.5288971066474915,-0.8008872270584106
1701290741926838300,3.82483837890625,-0.15148349106311798,-0.5296825766563416,-0.8443502187728882
1701290741936913400,3.834913330078125,-0.29318735003471375,-0.5191167593002319,-0.8450967073440552
1701290741946988500,3.844988525390625,-0.41269272565841675,-0.4968501925468445,-0.843625545501709
1701290741957063400,3.8550634765625,-0.5021154880523682,-0.468122661113739,-0.8679963946342468
1701290741967139600,3.8651396484375,-0.5816442370414734,-0.41101837158203125,-0.9130573868751526
1701290741977214500,3.87521435546875,-0.6483875513076782,-0.31691449880599976,-0.9619977474212646
1701290741987289300,3.885289306640625,-0.6992781758308411,-0.23156116902828217,-0.9962692260742188
1701290741997364500,3.895364501953125,-0.7305207848548889,-0.14064404368400574,-1.0155073404312134
1701290742007440600,3.905440673828125,-0.7523986101150513,0.0035193050280213356,-1.0284388065338135
1701290742017515500,3.915515625,-0.7973032593727112,0.24364669620990753,-1.026153802871704
1701290742027590400,3.92559033203125,-0.8489980101585388,0.5691719651222229,-1.0063462257385254
1701290742037666600,3.93566650390625,-0.908980131149292,0.9186726808547974,-1.0153082609176636
1701290742047741400,3.945741455078125,-0.9739771485328674,1.1797702312469482,-1.0148745775222778
1701290742057816600,3.955816650390625,-1.0368269681930542,1.317870020866394,-0.9589309096336365
1701290742067891500,3.965891357421875,-1.112565040588379,1.3364219665527344,-0.8525546193122864
1701290742077967400,3.97596728515625,-1.1724978685379028,1.2602288722991943,-0.7706887722015381
1701290742088042500,3.98604248046875,-1.1866511106491089,1.0939570665359497,-0.7492536902427673
1701290742098117400,3.996117431640625,-1.1476638317108154,0.8618202209472656,-0.7667240500450134
1701290742108192800,4.00619287109375,-1.0566093921661377,0.5232720375061035,-0.8181582689285278
1701290742118268700,4.0162685546875,-0.935465395450592,0.16216234862804413,-0.8537399768829346
1701290742128343800,4.02634375,-0.7951427102088928,-0.18305794894695282,-0.8549901247024536
1701290742138419000,4.0364189453125,-0.6227285861968994,-0.5036433935165405,-0.8112671375274658
1701290742148494800,4.046494873046875,-0.3842680752277374,-0.7370851635932922,-0.7057601809501648
1701290742158569700,4.05656982421875,-0.08848702907562256,-0.6876398921012878,-0.5962163805961609
1701290742168644900,4.066644775390625,0.17298904061317444,-0.4160900115966797,-0.4509827792644501
1701290742178719700,4.0767197265625,0.3162420690059662,-0.08016684651374817,-0.3234727382659912
1701290742188796000,4.0867958984375,0.3748178482055664,0.11911646276712418,-0.28086209297180176
1701290742198870800,4.096870849609375,0.38833603262901306,0.15182700753211975,-0.31239500641822815
1701290742208945700,4.106945556640625,0.35916149616241455,0.11357580870389938,-0.37499168515205383
1701290742219020800,4.117020751953125,0.2979399561882019,0.053165994584560394,-0.414020299911499
1701290742229097000,4.127096923828125,0.235377237200737,0.03603294491767883,-0.3878909647464752
1701290742239171800,4.137171875,0.18237367272377014,0.01057019829750061,-0.2630113363265991
1701290742249246700,4.147246826171875,0.13164159655570984,-0.026613347232341766,-0.16413183510303497
1701290742259323000,4.157322998046875,0.09091893583536148,-0.1266842782497406,-0.2194928228855133
1701290742269397800,4.167397705078125,0.12516407668590546,-0.22022591531276703,-0.28890085220336914
1701290742279473000,4.177472900390625,0.3128871023654938,-0.2762356698513031,-0.06158139929175377
1701290742289547800,4.1875478515625,0.6203441023826599,-0.33850017189979553,0.20070146024227142
1701290742299623700,4.197623779296875,0.8003482222557068,-0.4469321072101593,0.08190158009529114
1701290742309698800,4.20769873046875,0.7248821258544922,-0.6000669598579407,-0.2369081974029541
1701290742319774000,4.21777392578125,0.49340230226516724,-0.4361374080181122,-0.5219929218292236
1701290742329849600,4.227849609375,0.35725137591362,0.4230068624019623,-0.6111776232719421
1701290742339924700,4.2379248046875,0.3136594295501709,1.1285637617111206,0.41959163546562195
1701290742349999900,4.247999755859375,0.4148518145084381,0.7199961543083191,1.7774401903152466
1701290742360074800,4.25807470703125,0.21608495712280273,-0.3785553574562073,1.730265498161316
1701290742370151000,4.26815087890625,0.04093522951006889,-1.3131035566329956,1.2188712358474731
1701290742380225800,4.278225830078125,-0.029630016535520554,-1.4634445905685425,0.8580803275108337
1701290742390300700,4.28830078125,0.025511443614959717,-1.2456339597702026,0.5637087821960449
1701290742400375800,4.298375732421875,0.20401380956172943,-1.1098228693008423,0.19573049247264862
1701290742410452000,4.308451904296875,0.36869028210639954,-0.7471534609794617,-0.1659705489873886
1701290742420526800,4.31852685546875,0.3403470516204834,-0.056981410831213,-0.5043302178382874
1701290742430601700,4.328601806640625,0.15201035141944885,0.7551597952842712,-0.9216433763504028
1701290742440676600,4.338676513671875,-0.14713507890701294,1.3432810306549072,-1.337213397026062
1701290742450752800,4.348752685546875,-0.3866088092327118,1.474428653717041,-1.5942128896713257
1701290742460828000,4.358827880859375,-0.45738765597343445,1.8056678771972656,-1.802857756614685
1701290742470902800,4.36890283203125,-0.4077662229537964,3.060579776763916,-1.0967284440994263
1701290742480978700,4.378978759765625,-0.23842753469944,1.8789949417114258,0.5743786692619324
1701290742491053800,4.3890537109375,-0.21641738712787628,0.19990962743759155,0.6661218404769897
1701290742501129000,4.39912890625,-0.31311091780662537,-0.522201657295227,-0.04898028448224068
1701290742511203800,4.409203857421875,-0.37286096811294556,-0.6166410446166992,-0.5839046239852905
1701290742521279700,4.41927978515625,-0.3632730543613434,-0.36073288321495056,-0.7036285996437073
1701290742531355000,4.42935498046875,-0.36366382241249084,-0.18909510970115662,-0.5422656536102295
1701290742541429800,4.4394296875,-0.41403165459632874,-0.17685069143772125,-0.39718350768089294
1701290742551506000,4.449505859375,-0.4601883292198181,0.027392804622650146,-0.42193877696990967
1701290742561580800,4.459580810546875,-0.47826454043388367,0.3360297381877899,-0.5164183974266052
1701290742571655700,4.46965576171875,-0.4770098030567169,0.4101041555404663,-0.5979504585266113
1701290742581730800,4.479730712890625,-0.4355233609676361,0.08333216607570648,-0.6730723977088928
1701290742591807000,4.489806884765625,-0.3569633364677429,-0.4568087160587311,-0.7240743041038513
1701290742601881900,4.4998818359375,-0.26424992084503174,-0.9159653782844543,-0.7591409683227539
1701290742611956700,4.509956787109375,-0.18270815908908844,-1.0037297010421753,-0.7622230052947998
1701290742622031600,4.520031494140625,-0.11263266950845718,-0.755078911781311,-0.6760018467903137
1701290742632107800,4.530107666015625,-0.06876784563064575,-0.5081357359886169,-0.418992817401886
1701290742642183000,4.540182861328125,0.05087227001786232,-0.29454755783081055,-0.02686629630625248
1701290742652257800,4.5502578125,0.20842772722244263,-0.20652970671653748,0.3746853172779083
1701290742662332700,4.560332763671875,0.26453229784965515,-0.26660266518592834,0.6179463863372803
1701290742672408800,4.570408935546875,0.2429116815328598,-0.3281231224536896,0.6946835517883301
1701290742682484000,4.58048388671875,0.1730249971151352,-0.3367733359336853,0.7274625301361084
1701290742692558800,4.590558837890625,0.06552037596702576,-0.31655237078666687,0.7598042488098145
1701290742702634800,4.600634765625,-0.0725160539150238,-0.3560800850391388,0.7889584302902222
1701290742712710000,4.6107099609375,-0.17701102793216705,-0.4217497408390045,0.8155282139778137
1701290742722784800,4.62078466796875,-0.23845921456813812,-0.46671828627586365,0.8149689435958862
1701290742732860000,4.63085986328125,-0.26367029547691345,-0.41750240325927734,0.754386842250824
1701290742742935800,4.640935791015625,-0.24097537994384766,-0.1473928838968277,0.6558245420455933
1701290742753010700,4.6510107421875,-0.13462063670158386,0.06565391272306442,0.5459312200546265
1701290742763085800,4.6610859375,0.010827911086380482,-0.006548916455358267,0.41475343704223633
1701290742773160700,4.67116064453125,0.15273836255073547,-0.24672308564186096,0.28235989809036255
1701290742783236900,4.68123681640625,0.26971742510795593,-0.2740934491157532,0.2551170885562897
1701290742793311700,4.691311767578125,0.3993239998817444,0.15383704006671906,0.4678521156311035
1701290742803386600,4.70138671875,0.48907092213630676,0.6355019211769104,0.7844793200492859
1701290742813462800,4.711462890625,0.5049721598625183,0.7448331117630005,0.8648651838302612
1701290742823538000,4.721537841796875,0.4049307405948639,0.5953789353370667,0.7295582294464111
1701290742833612800,4.73161279296875,0.22203408181667328,0.48753973841667175,0.6349858641624451
1701290742843687700,4.741687744140625,0.0679108276963234,0.464325487613678,0.6427207589149475
1701290742853763800,4.751763916015625,0.029857628047466278,0.46928369998931885,0.7339999675750732
1701290742863839000,4.7618388671875,0.17410163581371307,0.39326348900794983,0.9314808249473572
1701290742873913900,4.771913818359375,0.42350009083747864,0.16284166276454926,1.033664345741272
1701290742883988700,4.78198876953125,0.6826722621917725,-0.06847383826971054,1.1533416509628296
1701290742894065000,4.79206494140625,0.9679749011993408,-0.09186699986457825,1.5155034065246582
1701290742904139800,4.802139892578125,1.2719420194625854,-0.05764192342758179,1.9594308137893677
1701290742914215000,4.81221484375,1.422006368637085,-0.1859917789697647,2.0489046573638916
1701290742924290800,4.822290771484375,1.3476945161819458,-0.5253652930259705,1.9019955396652222
1701290742934365700,4.83236572265625,1.1695337295532227,-0.8658113479614258,1.8225195407867432
1701290742944440800,4.84244091796875,1.0218812227249146,-0.9303764700889587,1.7919200658798218
1701290742954515700,4.852515625,1.0072078704833984,-0.762624979019165,1.627558708190918
1701290742964591600,4.862591552734375,1.1378265619277954,-0.39391404390335083,1.4062761068344116
1701290742974666800,4.872666748046875,1.2450534105300903,-0.12103313952684402,1.3384608030319214
1701290742984741600,4.88274169921875,1.1385029554367065,-0.2979610562324524,1.2303472757339478
1701290742994816800,4.892816650390625,0.8499141335487366,-0.4088617265224457,1.0466614961624146
1701290743004893000,4.902892822265625,0.6699645519256592,-0.5091001987457275,0.8009570837020874
1701290743014967600,4.912967529296875,0.6118364930152893,-0.548516035079956,0.5185219645500183
1701290743025042700,4.923042724609375,0.5482482314109802,-0.4523407816886902,0.3152276873588562
1701290743035118800,4.933118896484375,0.357369601726532,-0.33815309405326843,0.2589752972126007
1701290743045194000,4.943194091796875,0.13173410296440125,-0.25049275159835815,0.23682686686515808
1701290743055268900,4.953268798828125,-0.018354998901486397,-0.12660647928714752,0.18795521557331085
1701290743065343700,4.96334375,-0.04537569358944893,-0.008153867907822132,0.10944095253944397
1701290743075420000,4.973419921875,-0.015413882210850716,0.08451570570468903,-0.0006113240960985422
1701290743085494800,4.983494873046875,0.014848948456346989,0.21619729697704315,-0.13438110053539276
1701290743095570000,4.99356982421875,0.045229751616716385,0.25230148434638977,-0.28780820965766907
1701290743105644800,5.003644775390625,0.05092039331793785,0.1623295396566391,-0.46166282892227173
1701290743115720200,5.01372021484375,0.029248300939798355,-0.0018282798118889332,-0.6022868752479553
1701290743125795300,5.02379541015625,-0.005647365003824234,-0.1964920312166214,-0.7092061638832092
1701290743135870500,5.033870361328125,-0.04447927698493004,-0.3764727711677551,-0.7821020483970642
1701290743145946400,5.0439462890625,-0.08954635262489319,-0.4869646728038788,-0.8360015153884888
1701290743156021200,5.054021240234375,-0.1481071263551712,-0.4742591083049774,-0.886060357093811
1701290743166096400,5.064096435546875,-0.2436237931251526,-0.3852698504924774,-0.9175868630409241
1701290743176171300,5.074171142578125,-0.3638438582420349,-0.2624119222164154,-0.9162203073501587
1701290743186247400,5.084247314453125,-0.4852709472179413,-0.15677231550216675,-0.8593149781227112
1701290743196322600,5.094322509765625,-0.5824383497238159,-0.11687475442886353,-0.7791796922683716
1701290743206397200,5.104397216796875,-0.6827486753463745,-0.11917173117399216,-0.7148321270942688
1701290743216472300,5.114472412109375,-0.7999435067176819,-0.07315469533205032,-0.6874375343322754
1701290743226548500,5.124548583984375,-0.8991414308547974,0.06665646284818649,-0.6956658959388733
1701290743236623400,5.134623291015625,-0.9703329205513,0.26268088817596436,-0.7320170402526855
1701290743246698500,5.144698486328125,-1.0274302959442139,0.4553334414958954,-0.7645377516746521
1701290743256774400,5.1547744140625,-1.066696286201477,0.5897589921951294,-0.7721190452575684
1701290743266849300,5.164849365234375,-1.0881919860839844,0.6437157392501831,-0.7504361271858215
1701290743276924400,5.17492431640625,-1.0924872159957886,0.6615808010101318,-0.7174297571182251
1701290743286999300,5.184999267578125,-1.0850303173065186,0.7050822377204895,-0.7082030177116394
1701290743297075200,5.1950751953125,-1.0607491731643677,0.788332462310791,-0.7374711632728577
1701290743307150300,5.205150390625,-0.99605393409729,0.8309805989265442,-0.7704554796218872
1701290743317225500,5.2152255859375,-0.8810775279998779,0.8183013200759888,-0.7983605861663818
1701290743327301400,5.22530126953125,-0.758837103843689,0.801629900932312,-0.8209295868873596
1701290743337376300,5.235376220703125,-0.6575784683227539,0.7679402232170105,-0.8451468348503113
1701290743347451400,5.245451416015625,-0.6049839854240417,0.715603232383728,-0.8452397584915161
1701290743357526300,5.2555263671875,-0.572435736656189,0.5790414810180664,-0.8125200271606445
1701290743367602400,5.2656025390625,-0.5348941683769226,0.28054723143577576,-0.7438610792160034
1701290743377677600,5.275677490234375,-0.44216495752334595,-0.08571381866931915,-0.6436062455177307
1701290743387752200,5.285752197265625,-0.3264513909816742,-0.37332427501678467,-0.5612442493438721
1701290743397827300,5.295827392578125,-0.20282390713691711,-0.5428120493888855,-0.5309611558914185
1701290743407903500,5.305903564453125,-0.09505908936262131,-0.6414211988449097,-0.5626146793365479
1701290743417978400,5.315978271484375,-0.021128948777914047,-0.6812179088592529,-0.6539672017097473
1701290743428053500,5.326053466796875,0.032621629536151886,-0.6849125027656555,-0.7841651439666748
1701290743438128000,5.336128173828125,0.0841311663389206,-0.6173982620239258,-0.8880249261856079
1701290743448204300,5.346204345703125,0.1136656254529953,-0.46588465571403503,-0.9316363334655762
1701290743458279400,5.356279541015625,0.11555247753858566,-0.28168046474456787,-0.8771563172340393
1701290743468354300,5.366354248046875,0.10014475882053375,-0.16700929403305054,-0.7204594016075134
1701290743478430200,5.37643017578125,0.08302560448646545,-0.0029180017299950123,-0.517463743686676
1701290743488505300,5.38650537109375,0.12850306928157806,0.12471266090869904,-0.3784731328487396
1701290743498580500,5.39658056640625,0.3384402096271515,0.15070441365242004,-0.2763873338699341
1701290743508655400,5.4066552734375,0.6597711443901062,0.38038498163223267,-0.0826096311211586
1701290743518731300,5.416731201171875,0.9911827445030212,0.9305367469787598,0.06734117120504379
1701290743528806400,5.426806396484375,1.1654623746871948,1.20090913772583,0.0791216641664505
1701290743538881300,5.43688134765625,1.0655193328857422,1.0841292142868042,-0.16976593434810638
1701290743548957400,5.44695751953125,0.8991000056266785,0.9293137192726135,-0.42827126383781433
1701290743559032300,5.4570322265625,0.8876349925994873,1.8274357318878174,-0.3261715769767761
1701290743569107200,5.467107177734375,0.9590204954147339,2.5504918098449707,2.354525327682495
1701290743579182300,5.477182373046875,0.9095674157142639,0.7924078702926636,2.743795871734619
1701290743589258500,5.487258544921875,0.45860981941223145,-2.0127336978912354,1.2804316282272339
1701290743599333400,5.49733349609375,0.06571008265018463,-2.834296703338623,0.3280390799045563
1701290743609408300,5.507408203125,-0.16336117684841156,-2.2975192070007324,-0.0308716781437397
1701290743619483100,5.517483154296875,-0.1942671537399292,-1.4451745748519897,-0.19728167355060577
1701290743629559300,5.527559326171875,0.0033929243218153715,-0.8683087825775146,-0.34303539991378784
1701290743639634400,5.537634521484375,0.12101346999406815,-0.3910372257232666,-0.4894412159919739
1701290743649709300,5.547709228515625,-0.013654598034918308,0.31126630306243896,-0.6957620978355408
1701290743659784200,5.5577841796875,-0.2257319688796997,0.9585689902305603,-0.974582314491272
1701290743669860400,5.5678603515625,-0.3012546896934509,1.0845304727554321,-1.3194836378097534
1701290743679935500,5.577935546875,-0.18590210378170013,1.216444730758667,-1.5875009298324585
1701290743690010400,5.58801025390625,-0.13732045888900757,1.8041296005249023,-1.041293740272522
1701290743700086300,5.598086181640625,-0.12132132053375244,1.2175538539886475,-0.005087751895189285
1701290743710161400,5.608161376953125,-0.22400721907615662,-0.08011207729578018,0.16406798362731934
1701290743720236300,5.618236328125,-0.3289020359516144,-0.986645519733429,-0.34663984179496765
1701290743730311400,5.6283115234375,-0.3863658607006073,-1.2430663108825684,-0.770602285861969
1701290743740387300,5.63838720703125,-0.3966941237449646,-1.0086464881896973,-0.8554319739341736
1701290743750462200,5.648462158203125,-0.4370301067829132,-0.6008784770965576,-0.696784257888794
1701290743760537300,5.658537353515625,-0.529167652130127,-0.35047897696495056,-0.5330325365066528
1701290743770613500,5.668613525390625,-0.6063934564590454,-0.08941168338060379,-0.4770592749118805
1701290743780688400,5.6786884765625,-0.635806143283844,0.2453576922416687,-0.47229689359664917
1701290743790763300,5.68876318359375,-0.6303756833076477,0.47917789220809937,-0.45569661259651184
1701290743800838100,5.698838134765625,-0.5961782336235046,0.45393607020378113,-0.42192474007606506
1701290743810914300,5.708914306640625,-0.534284770488739,0.30783480405807495,-0.3759972155094147
1701290743820989400,5.718989501953125,-0.47390955686569214,0.12467817962169647,-0.34763774275779724
1701290743831064300,5.729064208984375,-0.4224037528038025,-0.045837901532649994,-0.2966232895851135
1701290743841139200,5.73913916015625,-0.3815811276435852,-0.1328481286764145,-0.22499321401119232
1701290743851215400,5.74921533203125,-0.3346908688545227,-0.08728596568107605,-0.22061604261398315
1701290743861290500,5.75929052734375,-0.28578776121139526,0.004944628104567528,-0.30165737867355347
1701290743871365400,5.769365478515625,-0.2125106155872345,0.022996334359049797,-0.39079365134239197
1701290743881441300,5.779441162109375,-0.12082935124635696,-0.0064210351556539536,-0.3721247911453247
1701290743891516400,5.789516357421875,-0.014498916454613209,-0.05708075314760208,-0.1528928428888321
1701290743901591300,5.79959130859375,0.09258651733398438,-0.23693254590034485,0.1349932700395584
1701290743911666400,5.80966650390625,0.16261380910873413,-0.5430927276611328,0.2330031841993332
1701290743921742300,5.819742431640625,0.20344512164592743,-0.8983514904975891,0.15775157511234283
1701290743931817200,5.829817138671875,0.2226843386888504,-1.0513598918914795,0.06931652128696442
1701290743941892400,5.839892333984375,0.21660159528255463,-0.8518367409706116,0.1054997444152832
1701290743951967200,5.84996728515625,0.1871824562549591,-0.558311402797699,0.3279693126678467
1701290743962043400,5.86004345703125,0.17315158247947693,-0.5053604245185852,0.5723484754562378
1701290743972118300,5.8701181640625,0.14511063694953918,-0.5370765328407288,0.6654219031333923
1701290743982193200,5.880193115234375,0.07722177356481552,-0.4872106611728668,0.638573169708252
1701290743992269300,5.890269287109375,-0.020493067800998688,-0.3817550837993622,0.5572373270988464
1701290744002344400,5.900344482421875,-0.1355743110179901,-0.2917208671569824,0.5022593140602112
1701290744012419300,5.91041943359375,-0.22090092301368713,-0.1790478378534317,0.48418793082237244
1701290744022494200,5.920494140625,-0.218099445104599,0.09644702076911926,0.5376507639884949
1701290744032570400,5.9305703125,-0.12390049546957016,0.39806094765663147,0.6332401037216187
1701290744042645500,5.9406455078125,-0.03166981413960457,0.4928697645664215,0.6704658269882202
1701290744052720400,5.950720458984375,0.058544497936964035,0.3712368309497833,0.6311466693878174
1701290744062795500,5.96079541015625,0.15882991254329681,0.2525179386138916,0.6393325328826904
1701290744072871400,5.970871337890625,0.24401378631591797,0.2515174150466919,0.7024811506271362
1701290744082946300,5.9809462890625,0.3622720539569855,0.47774630784988403,0.9232439398765564
1701290744093021400,5.991021484375,0.47281402349472046,0.5836730003356934,1.1593390703201294
1701290744103097300,6.001097412109375,0.49117350578308105,0.48556065559387207,1.1587530374526978
1701290744113172000,6.011171875,0.47007009387016296,0.5088867545127869,1.115386962890625
1701290744123247000,6.0212470703125,0.42197808623313904,0.6368553042411804,1.1794832944869995
1701290744133322200,6.031322265625,0.4286820590496063,0.6505274772644043,1.2578071355819702
1701290744143398400,6.0413984375,0.5213878154754639,0.5595508217811584,1.341423511505127
1701290744153473000,6.05147314453125,0.6818437576293945,0.38006946444511414,1.3418411016464233
1701290744163548200,6.061548095703125,0.82081538438797,0.1721300631761551,1.314480185508728
1701290744173623000,6.071623046875,0.8993291258811951,0.05175065994262695,1.357732892036438
1701290744183699200,6.08169921875,0.9795884490013123,0.027294673025608063,1.4213284254074097
1701290744193774300,6.0917744140625,1.0366634130477905,-0.058502525091171265,1.4189941883087158
1701290744203849000,6.101848876953125,1.0873942375183105,-0.18596060574054718,1.3764989376068115
1701290744213925000,6.111925048828125,1.1455875635147095,-0.20431512594223022,1.2990505695343018
1701290744224000300,6.122000244140625,1.197279930114746,-0.03202888369560242,1.238572597503662
1701290744234075100,6.1320751953125,1.1803596019744873,0.3342777490615845,1.1988539695739746
1701290744244150300,6.142150390625,0.995823323726654,0.6662945747375488,1.0700156688690186
1701290744254226200,6.15222607421875,0.7788625359535217,0.8061222434043884,0.92293781042099
1701290744264301000,6.162301025390625,0.7089771628379822,0.5302366018295288,0.7314362525939941
1701290744274376200,6.172376220703125,0.7380985617637634,0.10537424683570862,0.543305516242981
1701290744284451300,6.182451416015625,0.7651680111885071,-0.21820762753486633,0.3832562565803528
1701290744294527000,6.19252685546875,0.7095436453819275,-0.34171146154403687,0.24927368760108948
1701290744304602000,6.20260205078125,0.5978784561157227,-0.2646978795528412,0.13001848757266998
1701290744314677200,6.21267724609375,0.4689851999282837,-0.09885935485363007,0.05286139249801636
1701290744324753400,6.22275341796875,0.35809099674224854,0.028131932020187378,0.027089016512036324
1701290744334828000,6.232828125,0.3033587634563446,0.014408930204808712,0.04423551261425018
1701290744344903200,6.242903076171875,0.2866990864276886,-0.1388956606388092,0.04698149859905243
1701290744354978000,6.25297802734375,0.2504441738128662,-0.3190803527832031,0.0005439586821012199
1701290744365054200,6.26305419921875,0.1776595115661621,-0.3966868221759796,-0.08709128946065903
1701290744375129300,6.27312939453125,0.09595079720020294,-0.400095671415329,-0.18908050656318665
1701290744385204000,6.283203857421875,0.020802797749638557,-0.40870898962020874,-0.2713053226470947
1701290744395279000,6.293279052734375,-0.0480676144361496,-0.4673145115375519,-0.32571449875831604
1701290744405355300,6.303355224609375,-0.11998370289802551,-0.525719940662384,-0.3407912850379944
1701290744415430100,6.31343017578125,-0.1977783739566803,-0.517872154712677,-0.32702407240867615
1701290744425505300,6.32350537109375,-0.26970651745796204,-0.4340985119342804,-0.3105001449584961
1701290744435581200,6.333581298828125,-0.3382549583911896,-0.30660417675971985,-0.305321604013443
1701290744445656000,6.343656005859375,-0.40764325857162476,-0.18027789890766144,-0.3144231140613556
1701290744455731200,6.353731201171875,-0.49169793725013733,-0.10885245352983475,-0.33039888739585876
1701290744465806300,6.363806396484375,-0.5932839512825012,-0.07727337628602982,-0.34608519077301025
1701290744475882200,6.37388232421875,-0.6859207153320312,-0.008523338474333286,-0.35390743613243103
1701290744485957000,6.38395703125,-0.7513723969459534,0.171891450881958,-0.36224284768104553
1701290744496032300,6.3940322265625,-0.8097984194755554,0.40703150629997253,-0.3723732531070709
1701290744506107100,6.404107177734375,-0.8742674589157104,0.5631457567214966,-0.3842189908027649
1701290744516183000,6.41418310546875,-0.9348056316375732,0.6074093580245972,-0.3881879150867462
1701290744526258200,6.424258056640625,-0.9914453625679016,0.5338993668556213,-0.3843984007835388
1701290744536333000,6.4343330078125,-1.049688696861267,0.42115020751953125,-0.3579478859901428
1701290744546409200,6.4444091796875,-1.0920915603637695,0.3711423873901367,-0.32606613636016846
1701290744556484000,6.454484130859375,-1.1165183782577515,0.4198471009731293,-0.3088858127593994
1701290744566559000,6.46455908203125,-1.1448503732681274,0.5473094582557678,-0.3439476490020752
1701290744576634000,6.474634033203125,-1.17296302318573,0.6843504309654236,-0.42885908484458923
1701290744586710300,6.484710205078125,-1.1850579977035522,0.7849110960960388,-0.5252277255058289
1701290744596785200,6.49478515625,-1.1564303636550903,0.8261264562606812,-0.6203427910804749
1701290744606860300,6.5048603515625,-1.080592155456543,0.7829052805900574,-0.7245610952377319
1701290744616935200,6.51493505859375,-0.9797158241271973,0.6791402697563171,-0.8780220150947571
1701290744627011000,6.525010986328125,-0.8921142816543579,0.5166081190109253,-1.088644027709961
1701290744637086200,6.535086181640625,-0.8413869142532349,0.22132669389247894,-1.2849102020263672
1701290744647161300,6.545161376953125,-0.7973046898841858,-0.15976513922214508,-1.353554606437683
1701290744657237200,6.5552373046875,-0.7194511294364929,-0.5988072156906128,-1.2799662351608276
1701290744667312000,6.56531201171875,-0.576444149017334,-0.9884271025657654,-1.0996652841567993
1701290744677387300,6.57538720703125,-0.34568092226982117,-1.257076382637024,-0.8713269829750061
1701290744687462100,6.585462158203125,-0.07315708696842194,-1.2429406642913818,-0.6283876895904541
1701290744697538000,6.5955380859375,0.15051062405109406,-0.9048057198524475,-0.3827589750289917
1701290744707613200,6.60561328125,0.310497909784317,-0.45463284850120544,-0.1718592345714569
1701290744717688000,6.61568798828125,0.39253711700439453,-0.1042942926287651,-0.036533378064632416
1701290744727763200,6.62576318359375,0.38778817653656006,0.056734539568424225,-0.0009266460547223687
1701290744737839000,6.635839111328125,0.34360471367836,0.08372807502746582,-0.03825937211513519
1701290744747914000,6.6459140625,0.27535954117774963,0.11710182577371597,-0.13572797179222107
1701290744757989000,6.655989013671875,0.17882686853408813,0.1834438443183899,-0.27003490924835205
1701290744768065300,6.666065185546875,0.11618905514478683,0.23940856754779816,-0.38291698694229126
1701290744778140200,6.67614013671875,0.06658501923084259,0.2847622036933899,-0.4046843349933624
1701290744788215000,6.686215087890625,0.024691006168723106,0.3077537417411804,-0.3765049874782562
1701290744798290200,6.696290283203125,0.04888822138309479,0.30824536085128784,-0.35726842284202576
1701290744808366000,6.706365966796875,0.18964551389217377,0.41593116521835327,-0.2905387580394745
1701290744818441200,6.716441162109375,0.44898921251296997,0.6460416316986084,-0.04939192906022072
1701290744828516400,6.726516357421875,0.744827389717102,0.8613687753677368,0.24802076816558838
1701290744838591000,6.736591064453125,0.8749001622200012,0.8659392595291138,0.4094317555427551
1701290744848667100,6.746667236328125,0.7046530842781067,0.7372605800628662,0.21877127885818481
1701290744858742300,6.7567421875,0.42352157831192017,0.471876859664917,-0.09597069025039673
1701290744868817200,6.766817138671875,0.41261476278305054,0.9870607852935791,-0.3222513198852539
1701290744878893000,6.77689306640625,0.5966396927833557,1.821428894996643,0.9481079578399658
1701290744888968200,6.78696826171875,0.7084854245185852,0.34194624423980713,1.5644038915634155
1701290744899043000,6.79704296875,0.3989624083042145,-1.7658154964447021,0.7300182580947876
1701290744909118200,6.8071181640625,0.09525057673454285,-2.1161608695983887,0.11824660748243332
1701290744919194000,6.817194091796875,-0.06488902866840363,-1.4857630729675293,-0.1259298473596573
1701290744929269000,6.82726904296875,-0.004044410772621632,-0.7314274907112122,-0.2983720004558563
1701290744939344100,6.83734423828125,0.06794854998588562,-0.31912490725517273,-0.4813298285007477
1701290744949419300,6.847419189453125,-0.15962351858615875,-0.1911463588476181,-0.6398317813873291
1701290744959495200,6.8574951171875,-0.4671318233013153,0.02452707663178444,-0.766261875629425
1701290744969570000,6.867570068359375,-0.6082148551940918,0.44354742765426636,-0.8800128698348999
1701290744979645200,6.877645263671875,-0.4893707036972046,0.7399340867996216,-0.9557710289955139
1701290744989721000,6.88772119140625,-0.3211544454097748,0.6456480026245117,-0.7625913619995117
1701290744999796200,6.897796142578125,-0.2582141160964966,0.2866775393486023,-0.3946987986564636
1701290745009871400,6.907871337890625,-0.21771374344825745,-0.17967653274536133,-0.29928964376449585
1701290745019946000,6.917946044921875,-0.21878086030483246,-0.4051634669303894,-0.4551282227039337
1701290745030022100,6.928022216796875,-0.2454221397638321,-0.3561769127845764,-0.5907620787620544
1701290745040097300,6.93809716796875,-0.2661471366882324,-0.2072657197713852,-0.566134512424469
1701290745050172200,6.948172119140625,-0.25311094522476196,-0.1426069587469101,-0.46659055352211
1701290745060248000,6.958248046875,-0.25982820987701416,-0.2878344655036926,-0.42073383927345276
1701290745070323200,6.9683232421875,-0.28385743498802185,-0.45967772603034973,-0.41208362579345703
1701290745080398000,6.978398193359375,-0.30045637488365173,-0.5072569847106934,-0.4108244776725769
1701290745090473200,6.98847314453125,-0.30182409286499023,-0.40248897671699524,-0.3965296149253845
1701290745100549000,6.998549072265625,-0.29004839062690735,-0.20440490543842316,-0.3515980839729309
1701290745110624300,7.008624267578125,-0.25008419156074524,-0.011006955988705158,-0.276785671710968
1701290745120699400,7.018699462890625,-0.18503913283348083,0.10744379460811615,-0.18605390191078186
1701290745130774300,7.028774169921875,-0.12810999155044556,0.16357208788394928,-0.11049619317054749
1701290745140850400,7.038850341796875,-0.08888854831457138,0.1117514967918396,-0.08716557174921036
1701290745150925300,7.04892529296875,-0.0720435231924057,-0.006630805786699057,-0.1151503473520279
1701290745161000200,7.059000244140625,-0.059077925980091095,-0.09155209362506866,-0.15723228454589844
1701290745171076400,7.069076416015625,-0.02985035628080368,-0.16115796566009521,-0.1842794418334961
1701290745181151500,7.0791513671875,0.016557889059185982,-0.29468274116516113,-0.2348850965499878
1701290745191226400,7.089226318359375,0.08794704079627991,-0.5265848636627197,-0.299480140209198
1701290745201301200,7.09930126953125,0.1552182137966156,-0.7615885734558105,-0.35332900285720825
1701290745211377400,7.10937744140625,0.20167209208011627,-0.8825845718383789,-0.34257054328918457
1701290745221452300,7.119452392578125,0.23195835947990417,-0.8139261603355408,-0.2408771812915802
1701290745231527400,7.12952734375,0.21594111621379852,-0.6781569719314575,-0.11341369897127151
1701290745241602300,7.139602294921875,0.1566050946712494,-0.5849663615226746,-0.06339047849178314
1701290745251678200,7.14967822265625,0.08391828835010529,-0.5564018487930298,-0.10727625340223312
1701290745261753300,7.15975341796875,-0.01517579797655344,-0.6036258339881897,-0.12537695467472076
1701290745271828500,7.169828369140625,-0.10858920216560364,-0.7032546997070312,-0.02525845542550087
1701290745281904000,7.179904052734375,-0.1439615786075592,-0.7536374926567078,0.18040655553340912
1701290745291979300,7.189979248046875,-0.17332780361175537,-0.4889966547489166,0.3684900999069214
1701290745302054400,7.200054443359375,-0.17392009496688843,0.08899478614330292,0.48898348212242126
1701290745312129300,7.21012939453125,-0.11512068659067154,0.45588067173957825,0.5704101920127869
1701290745322205200,7.220205078125,-0.10019180178642273,0.40820741653442383,0.6049836277961731
1701290745332280300,7.2302802734375,-0.16679930686950684,0.19507941603660583,0.6793020367622375
1701290745342355200,7.240355224609375,-0.2521999776363373,0.013529065065085888,0.8347259759902954
1701290745352430300,7.250430419921875,-0.2674275040626526,-0.03561575710773468,0.9929876923561096
1701290745362506500,7.260506591796875,-0.16785748302936554,0.19184668362140656,1.1708346605300903
1701290745372581000,7.2705810546875,-0.014746680855751038,0.4227788746356964,1.1944832801818848
1701290745382656300,7.28065625,0.08687102794647217,0.5025416016578674,1.0501700639724731
1701290745392731100,7.290731201171875,0.11140797287225723,0.45745599269866943,0.9821012616157532
1701290745402807300,7.300807373046875,0.12089814990758896,0.41261446475982666,1.0224212408065796
1701290745412882400,7.31088232421875,0.12769480049610138,0.4958341717720032,1.1269254684448242
1701290745422957000,7.32095703125,0.15539246797561646,0.633484959602356,1.1814944744110107
1701290745433033200,7.331033203125,0.1986270248889923,0.639011025428772,1.1055030822753906
1701290745443108400,7.3411083984375,0.2645663321018219,0.5665237903594971,1.0098657608032227
1701290745453183500,7.35118359375,0.3722454011440277,0.4847215712070465,0.9557351469993591
1701290745463258400,7.36125830078125,0.517360508441925,0.46864140033721924,0.9269804358482361
1701290745473334300,7.371334228515625,0.7217267751693726,0.47029176354408264,0.9102352857589722
1701290745483409400,7.381409423828125,0.9552785158157349,0.41591641306877136,0.9837267994880676
1701290745493484300,7.391484375,1.1649034023284912,0.3152858316898346,1.1345789432525635
1701290745503560200,7.401560302734375,1.3150771856307983,0.0665617436170578,1.1816095113754272
1701290745513635300,7.41163525390625,1.4030463695526123,-0.25562506914138794,1.0579395294189453
1701290745523710200,7.421710205078125,1.4408332109451294,-0.36420774459838867,0.952752947807312
1701290745533785300,7.431785400390625,1.4121733903884888,-0.3034575879573822,0.9022956490516663
1701290745543861500,7.441861572265625,1.32145094871521,-0.2195110321044922,0.8157029747962952
1701290745553936100,7.45193603515625,1.1781010627746582,-0.2144908607006073,0.6662939190864563
1701290745564011300,7.46201123046875,0.9945656061172485,-0.41756993532180786,0.4795812964439392
1701290745574086100,7.472086181640625,0.8871843218803406,-0.6832037568092346,0.29405882954597473
1701290745584162300,7.482162353515625,0.8765209913253784,-0.7331410050392151,0.17513296008110046
1701290745594237400,7.492237548828125,0.8799372911453247,-0.6137810945510864,0.08247148990631104
1701290745604312000,7.50231201171875,0.8113119006156921,-0.44009485840797424,0.008918169885873795
1701290745614388200,7.51238818359375,0.6588488817214966,-0.25373509526252747,-0.00921714399009943
1701290745624463400,7.52246337890625,0.4651513397693634,-0.15063931047916412,-0.04835016652941704
1701290745634538500,7.53253857421875,0.3477012813091278,-0.06399329751729965,-0.08389788866043091
1701290745644613400,7.54261328125,0.3431571424007416,0.02879176288843155,-0.07445458322763443
1701290745654689300,7.552689208984375,0.37183910608291626,0.05879081413149834,-0.08607634902000427
1701290745664764400,7.562764404296875,0.3487820029258728,-0.020963139832019806,-0.15926773846149445
1701290745674839300,7.57283935546875,0.2524142563343048,-0.21906286478042603,-0.2668963372707367
1701290745684914400,7.58291455078125,0.1370978206396103,-0.46868202090263367,-0.3705015778541565
1701290745694990300,7.592990234375,0.03072466142475605,-0.6648405194282532,-0.45585811138153076
1701290745705065200,7.603065185546875,-0.05869710072875023,-0.7272887229919434,-0.512096643447876
1701290745715140400,7.613140380859375,-0.15278159081935883,-0.6501936912536621,-0.5421179533004761
1701290745725216500,7.623216552734375,-0.2659936547279358,-0.5059510469436646,-0.5606296062469482
1701290745735291100,7.633291015625,-0.3947359025478363,-0.35960888862609863,-0.5686790347099304
1701290745745366300,7.6433662109375,-0.5324602723121643,-0.2571594715118408,-0.5686572194099426
1701290745755441200,7.653441162109375,-0.6652392148971558,-0.19805549085140228,-0.5629355907440186
1701290745765517300,7.663517333984375,-0.7798574566841125,-0.1638818085193634,-0.5500434637069702
1701290745775592400,7.673592529296875,-0.859621524810791,-0.13499200344085693,-0.5278301239013672
1701290745785667000,7.6836669921875,-0.9278892874717712,-0.07391853630542755,-0.5088710784912109
1701290745795742200,7.6937421875,-0.98897385597229,0.0625581294298172,-0.4883348047733307
1701290745805818400,7.703818359375,-1.0386782884597778,0.24016672372817993,-0.43887510895729065
1701290745815893500,7.7138935546875,-1.0527491569519043,0.4271606504917145,-0.407171368598938
1701290745825968400,7.723968505859375,-1.0529124736785889,0.6499016284942627,-0.41093680262565613
1701290745836044300,7.734044189453125,-1.0695922374725342,0.9160593152046204,-0.4595750868320465
1701290745846119400,7.744119384765625,-1.0998097658157349,1.1507399082183838,-0.5471847653388977
1701290745856194300,7.7541943359375,-1.1185377836227417,1.2388885021209717,-0.6228741407394409
1701290745866269400,7.76426953125,-1.0952916145324707,1.131719946861267,-0.6235916018486023
1701290745876345300,7.774345458984375,-1.060721516609192,0.8985527753829956,-0.5485432147979736
1701290745886420200,7.784420166015625,-1.0335562229156494,0.6075193881988525,-0.4664672315120697
1701290745896495400,7.794495361328125,-1.006995677947998,0.32798588275909424,-0.43607544898986816
1701290745906570200,7.8045703125,-0.9706516861915588,0.10479620844125748,-0.46824297308921814
1701290745916646100,7.814646240234375,-0.903143048286438,-0.032032791525125504,-0.5016039609909058
1701290745926721300,7.82472119140625,-0.7815684080123901,-0.1341700702905655,-0.4899672567844391
1701290745936796200,7.834796142578125,-0.6263858079910278,-0.1942751407623291,-0.43472009897232056
1701290745946872300,7.844872314453125,-0.4637484550476074,-0.18696795403957367,-0.3789716064929962
1701290745956947200,7.854947265625,-0.3125067949295044,-0.15237540006637573,-0.37379369139671326
1701290745967022000,7.86502197265625,-0.19543559849262238,-0.13146959245204926,-0.4205593466758728
1701290745977097200,7.87509716796875,-0.10159891843795776,-0.129200741648674,-0.5076495409011841
1701290745987173400,7.88517333984375,-0.026782209053635597,-0.14740745723247528,-0.6197414994239807
1701290745997248500,7.89524853515625,0.023095684126019478,-0.15031184256076813,-0.7203527092933655
1701290746007323400,7.905323486328125,0.02293589524924755,-0.1615075170993805,-0.8058476448059082
1701290746017398300,7.915398193359375,-0.011119458824396133,-0.18359798192977905,-0.8540659546852112
1701290746027474400,7.925474365234375,-0.034968867897987366,-0.20663726329803467,-0.8401506543159485
1701290746037549300,7.93554931640625,-0.0640043243765831,-0.24867796897888184,-0.7331768870353699
1701290746047624400,7.94562451171875,-0.09295447915792465,-0.2770587205886841,-0.5760189294815063
1701290746057700400,7.955700439453125,-0.10418974608182907,-0.24126194417476654,-0.4245058000087738
1701290746067775200,7.965775146484375,-0.10403580963611603,-0.15335872769355774,-0.301808625459671
1701290746077850400,7.975850341796875,-0.09918370097875595,-0.000941975973546505,-0.19618703424930573
1701290746087925200,7.98592529296875,-0.02907918207347393,0.1725858598947525,-0.08461443334817886
1701290746098001200,7.996001220703125,0.12179765850305557,0.35065653920173645,0.16963885724544525
1701290746108076300,8.006076171875,0.29344478249549866,0.6368895769119263,0.5689098238945007
1701290746118151000,8.01615087890625,0.4814572334289551,1.207776665687561,0.8367851376533508
1701290746128226000,8.02622607421875,0.6231458783149719,1.833315372467041,0.7376646995544434
1701290746138302200,8.03630224609375,0.5963656306266785,2.1271274089813232,0.3030449450016022
1701290746148376800,8.046376953125,0.3890305161476135,1.8873825073242188,-0.14895951747894287
1701290746158452000,8.056451904296875,0.172260582447052,1.4166862964630127,-0.393805593252182
1701290746168528100,8.066528076171876,0.09742362797260284,1.1675846576690674,-0.4285971224308014
1701290746178603000,8.07660302734375,0.09951198846101761,0.938441812992096,-0.277042031288147
1701290746188678100,8.08667822265625,0.12863072752952576,0.4636859595775604,-0.1860274374485016
1701290746198753000,8.0967529296875,0.2000248283147812,0.05041109025478363,-0.2166270613670349
1701290746208829200,8.1068291015625,0.22655551135540009,0.018495768308639526,-0.1538238674402237
1701290746218904000,8.116904052734375,0.07878788560628891,-0.13745135068893433,0.09695827215909958
1701290746228979200,8.126979248046876,-0.025331858545541763,-0.8121059536933899,0.15925998985767365
1701290746239055000,8.13705517578125,-0.06142612174153328,-1.3626281023025513,0.08587269484996796
1701290746249130000,8.1471298828125,-0.12142980098724365,-1.4167797565460205,0.10947282612323761
1701290746259205000,8.157205078125,-0.09863448143005371,-1.2400285005569458,0.052744559943675995
1701290746269280000,8.167280029296874,-0.02804819494485855,-0.9783497452735901,-0.14933663606643677
1701290746279356000,8.17735595703125,-0.07765302807092667,-0.4724715054035187,-0.41192272305488586
1701290746289431000,8.18743115234375,-0.21374349296092987,0.11011121422052383,-0.7200296521186829
1701290746299506000,8.197505859375,-0.3366259038448334,0.33176469802856445,-1.1066817045211792
1701290746309581000,8.2075810546875,-0.4252500534057617,0.38700905442237854,-1.339942216873169
1701290746319657000,8.217656982421875,-0.43198543787002563,0.4468751549720764,-1.1828057765960693
1701290746329731800,8.22773193359375,-0.34460315108299255,0.27192145586013794,-0.811781644821167
1701290746339807000,8.237806884765625,-0.2620975971221924,-0.12418167293071747,-0.5860869884490967
1701290746349883100,8.247883056640624,-0.2491711676120758,-0.34026551246643066,-0.6004909873008728
1701290746359958000,8.2579580078125,-0.2613045275211334,-0.2552306354045868,-0.6415507793426514
1701290746370033200,8.268033203125,-0.26817041635513306,-0.137142613530159,-0.5753200650215149
1701290746380108000,8.27810791015625,-0.27515214681625366,-0.0967259407043457,-0.44019314646720886
1701290746390184200,8.28818408203125,-0.29912832379341125,-0.0876552164554596,-0.3261603116989136
1701290746400259000,8.298259033203125,-0.3346407115459442,-0.06720168888568878,-0.2593415081501007
1701290746410334200,8.308334228515625,-0.36383479833602905,-0.020557492971420288,-0.23413656651973724
1701290746420410000,8.31841015625,-0.3758292496204376,0.06715153902769089,-0.22478628158569336
1701290746430485000,8.328485107421875,-0.35810670256614685,0.13065728545188904,-0.22671787440776825
1701290746440560000,8.33856005859375,-0.2848258316516876,0.1095808893442154,-0.20712979137897491
1701290746450635000,8.348635009765625,-0.17849859595298767,0.022353578358888626,-0.17148710787296295
1701290746460711000,8.3587109375,-0.0693713054060936,-0.17307144403457642,-0.11531039327383041
1701290746470786000,8.3687861328125,0.0349135547876358,-0.4598046541213989,-0.07657870650291443
1701290746480861000,8.37886083984375,0.13625988364219666,-0.7027922868728638,-0.14328104257583618
1701290746490936000,8.38893603515625,0.2120364010334015,-0.7199822068214417,-0.30617594718933105
1701290746501012000,8.399011962890626,0.27535325288772583,-0.6178878545761108,-0.4219960868358612
1701290746511086800,8.4090869140625,0.35194575786590576,-0.6597420573234558,-0.36437806487083435
1701290746521162000,8.419161865234376,0.429216206073761,-0.9022200107574463,-0.17378371953964233
1701290746531238100,8.429238037109375,0.49243220686912537,-1.080504298210144,-0.016466012224555016
1701290746541313000,8.43931298828125,0.5301420092582703,-1.0739786624908447,0.06653300672769547
1701290746551388000,8.449387939453125,0.5177644491195679,-0.9679454565048218,0.19380147755146027
1701290746561463000,8.459463134765626,0.4495325982570648,-0.8563389778137207,0.42006754875183105
1701290746571539200,8.469539306640625,0.36062243580818176,-0.777934730052948,0.6426069140434265
1701290746581614000,8.479614013671876,0.2518273890018463,-0.6655734777450562,0.7764090895652771
1701290746591689200,8.489689208984375,0.1579749435186386,-0.41595593094825745,0.8245872855186462
1701290746601763800,8.499763916015626,0.10117175430059433,-0.05464848875999451,0.8403165340423584
1701290746611840000,8.509840087890625,0.04815834015607834,0.21591642498970032,0.835269570350647
1701290746621915100,8.5199150390625,-0.0430358424782753,0.17253363132476807,0.7345026731491089
1701290746631990000,8.529989990234375,-0.19403281807899475,-0.014242120087146759,0.5545321106910706
1701290746642066000,8.54006591796875,-0.3233187198638916,-0.15401963889598846,0.35550203919410706
1701290746652141000,8.55014111328125,-0.3835974931716919,-0.12254239618778229,0.1806255728006363
1701290746662216000,8.5602158203125,-0.3406588137149811,0.05913218483328819,0.08012931048870087
1701290746672291000,8.570291015625,-0.20928402245044708,0.4478740692138672,0.21657264232635498
1701290746682367000,8.580366943359374,0.036013614386320114,0.9985057711601257,0.8102868795394897
1701290746692441900,8.59044189453125,0.2193126082420349,0.9640729427337646,1.2129276990890503
1701290746702517000,8.60051708984375,0.18560335040092468,0.4264529347419739,0.9883356690406799
1701290746712593200,8.61059326171875,0.0222980547696352,0.07159310579299927,0.6396810412406921
1701290746722668000,8.62066796875,-0.08333078026771545,-0.10419116914272308,0.400456041097641
1701290746732743000,8.630742919921875,-0.05148576945066452,-0.14313936233520508,0.3770252764225006
1701290746742818000,8.640818115234374,0.12159945070743561,0.012896030209958553,0.5738970637321472
1701290746752894200,8.650894287109375,0.3413184881210327,0.24408824741840363,0.8633323311805725
1701290746762969000,8.660968994140624,0.5223680138587952,0.4217947721481323,1.0291552543640137
1701290746773044200,8.671044189453125,0.6558621525764465,0.44869163632392883,1.0023581981658936
1701290746783118800,8.681118896484374,0.7234958410263062,0.3964356482028961,0.9905085563659668
1701290746793195000,8.691195068359375,0.7556447386741638,0.3361597955226898,1.0638450384140015
1701290746803270100,8.701270263671875,0.843306303024292,0.24069808423519135,1.1760215759277344
1701290746813345000,8.711344970703125,1.0153268575668335,0.09448839724063873,1.306862473487854
1701290746823421000,8.7214208984375,1.211596131324768,-0.08078984916210175,1.3874459266662598
1701290746833496000,8.73149609375,1.3230845928192139,-0.2580818235874176,1.3605828285217285
1701290746843571000,8.741571044921875,1.3107633590698242,-0.2797282040119171,1.3171238899230957
1701290746853646000,8.75164599609375,1.256603717803955,-0.16068704426288605,1.2224370241165161
1701290746863722000,8.761721923828125,1.2125476598739624,-0.036397844552993774,1.0604102611541748
1701290746873796900,8.771796875,1.1853909492492676,0.13327959179878235,0.9146765470504761
1701290746883872000,8.7818720703125,1.1793850660324097,0.3898122310638428,0.8256287574768066
1701290746893947100,8.791947021484376,1.1580911874771118,0.5856118202209473,0.7938452959060669
1701290746904023000,8.80202294921875,1.1049383878707886,0.5359525680541992,0.7595977187156677
1701290746914098000,8.812097900390626,1.031378984451294,0.3059508204460144,0.6923315525054932
1701290746924173000,8.822173095703125,0.9455676674842834,0.10494566708803177,0.588567316532135
1701290746934249200,8.832249267578124,0.8368456959724426,0.009586124680936337,0.4775708019733429
1701290746944324000,8.842323974609375,0.6970340013504028,-0.026371216401457787,0.4326813220977783
1701290746954399200,8.852399169921876,0.5479025840759277,-0.09617985785007477,0.4350755214691162
1701290746964473900,8.862473876953125,0.4238813519477844,-0.23743148148059845,0.46601730585098267
1701290746974550000,8.872550048828124,0.37159764766693115,-0.319487988948822,0.519284725189209
1701290746984625200,8.882625244140625,0.3660529553890228,-0.33281686902046204,0.5469467639923096
1701290746994700000,8.892699951171876,0.3386508822441101,-0.3011534810066223,0.4924965500831604
1701290747004775200,8.902775146484375,0.2720136344432831,-0.3255859315395355,0.3778017461299896
1701290747014851000,8.91285107421875,0.1717834323644638,-0.40681180357933044,0.2503199577331543
1701290747024926000,8.922926025390625,0.06096833571791649,-0.5008610486984253,0.15703698992729187
1701290747035001000,8.9330009765625,-0.058314383029937744,-0.5469661951065063,0.10779780894517899
1701290747045077000,8.943076904296875,-0.1773970127105713,-0.5417886972427368,0.07160180062055588
1701290747055151900,8.95315185546875,-0.27866479754447937,-0.4963538646697998,0.018580125644803047
1701290747065227000,8.96322705078125,-0.34994012117385864,-0.38445743918418884,-0.058384522795677185
1701290747075302100,8.97330224609375,-0.41653963923454285,-0.2070307433605194,-0.1376282274723053
1701290747085378000,8.9833779296875,-0.5046977996826172,-0.004486734978854656,-0.1979433000087738
1701290747095453000,8.993452880859374,-0.6099062561988831,0.1541825383901596,-0.21863579750061035
1701290747105528000,9.003528076171875,-0.7147650718688965,0.23176054656505585,-0.20263953506946564
1701290747115603200,9.013603271484374,-0.8106790781021118,0.3155243992805481,-0.15792132914066315
1701290747125679400,9.023679443359375,-0.8848011493682861,0.4413429796695709,-0.11331835389137268
1701290747135754200,9.033754150390624,-0.947128176689148,0.6238792538642883,-0.07974175363779068
1701290747145829000,9.0438291015625,-0.9932902455329895,0.85038822889328,-0.06437894701957703
1701290747155905300,9.0539052734375,-1.0249382257461548,1.0891990661621094,-0.049397602677345276
1701290747165980400,9.06398046875,-1.0441232919692993,1.2623056173324585,-0.025163104757666588
1701290747176055300,9.07405517578125,-1.0374808311462402,1.3567951917648315,0.03017498552799225
1701290747186130200,9.084130126953125,-1.0320630073547363,1.3700839281082153,0.09367505460977554
1701290747196206300,9.094206298828125,-1.028193712234497,1.321385145187378,0.14128172397613525
1701290747206281200,9.10428125,-1.0058993101119995,1.2405452728271484,0.13972429931163788
1701290747216356400,9.1143564453125,-0.9501990675926208,1.1463178396224976,0.09031493216753006
1701290747226431500,9.124431396484376,-0.8653528690338135,1.046213150024414,0.03617926687002182
1701290747236507400,9.13450732421875,-0.7764568328857422,0.9349985122680664,-0.008821499533951283
1701290747246582300,9.144582275390626,-0.6846158504486084,0.8392331004142761,-0.034047771245241165
1701290747256657400,9.154657470703125,-0.625612199306488,0.7740362286567688,-0.05848999693989754
1701290747266733300,9.1647333984375,-0.6022710204124451,0.7997124195098877,-0.11214876919984818
1701290747276808200,9.17480810546875,-0.5918527245521545,0.9052953124046326,-0.19554299116134644
1701290747286883300,9.18488330078125,-0.5780085325241089,1.0247308015823364,-0.3113713264465332
1701290747296958200,9.194958251953125,-0.5686885714530945,1.080639362335205,-0.46708449721336365
1701290747307034400,9.205034423828126,-0.5632010698318481,1.0388104915618896,-0.6237145662307739
1701290747317109200,9.215109130859375,-0.5569631457328796,0.9202835559844971,-0.7116012573242188
1701290747327184100,9.22518408203125,-0.5586735010147095,0.7735353708267212,-0.7044561505317688
1701290747337259300,9.23525927734375,-0.544952929019928,0.6565970182418823,-0.6239016652107239
1701290747347335400,9.24533544921875,-0.4910760223865509,0.5427740812301636,-0.5381392240524292
1701290747357410300,9.255410400390625,-0.4104509651660919,0.40403804183006287,-0.4832855761051178
1701290747367485200,9.265485107421876,-0.34247031807899475,0.2534373700618744,-0.4577738344669342
1701290747377561300,9.275561279296875,-0.3063187003135681,0.14267487823963165,-0.44326838850975037
1701290747387636200,9.28563623046875,-0.29020053148269653,0.10027345269918442,-0.4078311324119568
1701290747397711400,9.29571142578125,-0.28125497698783875,0.11944527924060822,-0.35477137565612793
1701290747407786500,9.305786376953124,-0.2885041832923889,0.1815793216228485,-0.3216518461704254
1701290747417862400,9.3158623046875,-0.3030594289302826,0.28867751359939575,-0.3094915747642517
1701290747427937300,9.325937255859374,-0.3208766281604767,0.39763355255126953,-0.27781420946121216
1701290747438012400,9.336012451171875,-0.30364835262298584,0.48708033561706543,-0.21133077144622803
1701290747448087300,9.34608740234375,-0.25019294023513794,0.5701161623001099,-0.08746938407421112
1701290747458163200,9.3561630859375,-0.1956961452960968,0.7069640755653381,0.06679662317037582
1701290747468238300,9.36623828125,-0.1663571447134018,0.9316151738166809,0.21934570372104645
1701290747478313200,9.376313232421875,-0.16668978333473206,1.2629849910736084,0.353142112493515
1701290747488389400,9.386389404296875,-0.1905895173549652,1.5936789512634277,0.45269694924354553
1701290747498464300,9.39646435546875,-0.21032221615314484,1.9240182638168335,0.5423685312271118
1701290747508539100,9.4065390625,-0.24908514320850372,2.21955943107605,0.6482259035110474
1701290747518614300,9.4166142578125,-0.24947449564933777,2.4150593280792236,0.7370495200157166
1701290747528690400,9.4266904296875,-0.12724240124225616,2.3947625160217285,0.7483590841293335
1701290747538765300,9.436765380859375,0.07294288277626038,2.091252565383911,0.6134963035583496
1701290747548840200,9.446840087890624,0.19305400550365448,1.3833061456680298,0.4296227693557739
1701290747558915300,9.456915283203125,0.27224230766296387,0.5775169730186462,0.20814526081085205
1701290747568991200,9.4669912109375,0.3346210718154907,0.2897242605686188,-0.038988273590803146
1701290747579066400,9.47706640625,0.39223217964172363,0.7403172850608826,-0.297413170337677
1701290747589141200,9.487141357421875,0.5141113996505737,1.2308701276779175,-0.35039710998535156
1701290747599217400,9.497217529296876,0.6382150053977966,1.1477971076965332,0.09611353278160095
1701290747609292300,9.507292236328125,0.6220042109489441,0.5002285242080688,0.703920841217041
1701290747619367400,9.517367431640626,0.3806818723678589,-0.3678051233291626,0.7958970665931702
1701290747629442300,9.5274423828125,0.26739269495010376,-0.7075620889663696,0.6129375100135803
1701290747639518200,9.537518310546876,0.23921272158622742,-0.5540066361427307,0.5050554871559143
1701290747649593300,9.54759326171875,0.24429944157600403,-0.25793513655662537,0.4354988634586334
1701290747659668200,9.557668212890626,0.2815709114074707,0.07675685733556747,0.3350529670715332
1701290747669743400,9.567743408203125,0.1879933923482895,0.3726058602333069,0.22628821432590485
1701290747679819300,9.5778193359375,-0.06569108366966248,0.5704619288444519,0.06661919504404068
1701290747689894100,9.58789404296875,-0.33729124069213867,0.6035701036453247,-0.22420023381710052
1701290747699969300,9.59796923828125,-0.5293557643890381,0.46303024888038635,-0.6413218379020691
1701290747710044400,9.60804443359375,-0.5964165925979614,0.22977516055107117,-1.0781092643737793
1701290747720120000,9.6181201171875,-0.5453725457191467,0.200421541929245,-1.4014108180999756
1701290747730195200,9.6281953125,-0.491636723279953,0.5497897267341614,-1.5979543924331665
1701290747740270300,9.638270263671876,-0.4668551981449127,1.29841148853302,-1.5184681415557861
1701290747750346200,9.64834619140625,-0.3203722834587097,1.755596399307251,-0.6926218271255493
1701290747760421400,9.65842138671875,-0.15859349071979523,1.177213430404663,0.19925163686275482
1701290747770496300,9.668496337890625,-0.08402276784181595,0.4488880932331085,0.3451138436794281
1701290747780571100,9.678571044921876,-0.0380139984190464,0.08547630906105042,0.06582096219062805
1701290747790647300,9.688647216796875,-0.024425501003861427,-0.08882931619882584,-0.11042572557926178
1701290747800722400,9.698722412109374,-0.06067219004034996,-0.02170540764927864,-0.09982820600271225
1701290747810797300,9.70879736328125,-0.11416247487068176,0.2929089069366455,0.004004546441137791
1701290747820873200,9.718873291015624,-0.12796030938625336,0.6405981779098511,0.07077585160732269
1701290747830948400,9.7289482421875,-0.1261928677558899,0.8290198445320129,0.0514683835208416
1701290747841023200,9.739023193359374,-0.12300612777471542,0.8620531558990479,-0.01614554598927498
1701290747851098400,9.749098388671875,-0.0992145985364914,0.7676069140434265,-0.09743089973926544
1701290747861174300,9.75917431640625,-0.0537634901702404,0.659453272819519,-0.16848324239253998
1701290747871249200,9.769249267578125,-0.03559071943163872,0.6224012970924377,-0.22546514868736267
1701290747881324300,9.77932421875,-0.023407822474837303,0.6475381255149841,-0.23762594163417816
1701290747891399400,9.7893994140625,0.01942566968500614,0.6308942437171936,-0.1656752973794937
1701290747901475000,9.79947509765625,0.09379763901233673,0.5475048422813416,-0.05122995376586914
1701290747911550200,9.80955029296875,0.16187433898448944,0.4500698447227478,0.043689023703336716
1701290747921625300,9.819625244140624,0.2105145901441574,0.42347127199172974,0.10585252940654755
1701290747931700200,9.8297001953125,0.24685677886009216,0.4555726945400238,0.149021714925766
1701290747941776400,9.8397763671875,0.26868751645088196,0.4475885331630707,0.19233828783035278
1701290747951851300,9.849851318359375,0.29174622893333435,0.3766292631626129,0.27152344584465027
1701290747961926100,9.859926025390624,0.2937800884246826,0.27904972434043884,0.3280610144138336
1701290747972002300,9.870002197265626,0.28304773569107056,0.13861387968063354,0.37125420570373535
1701290747982077400,9.880077392578125,0.2629256844520569,0.09201974421739578,0.43267786502838135
1701290747992152300,9.89015234375,0.2686867117881775,0.1989831179380417,0.528170108795166
1701290748002227200,9.900227294921875,0.3138557970523834,0.17975082993507385,0.6165644526481628
1701290748012303400,9.910303466796876,0.26226139068603516,0.00400834996253252,0.5843714475631714
1701290748022378200,9.920378173828125,0.111395463347435,-0.006939904764294624,0.517602264881134
1701290748032453400,9.930453369140626,-0.02357408218085766,0.1785174310207367,0.4681015610694885
1701290748042528500,9.940528564453125,-0.08338601887226105,0.42989346385002136,0.44501593708992004
1701290748052604200,9.950604248046876,-0.06810382753610611,0.7938846945762634,0.5748212337493896
1701290748062679300,9.96067919921875,0.04153371974825859,1.0825703144073486,0.8861823081970215
1701290748072754400,9.97075439453125,0.15600605309009552,1.0484671592712402,1.1132891178131104
1701290748082830000,9.980830078125,0.13841214776039124,0.8431941270828247,1.038910984992981
1701290748092905200,9.9909052734375,-0.020223744213581085,0.8020223379135132,0.8471006155014038
1701290748102980400,10.00098046875,-0.12469982355833054,0.8713199496269226,0.7117488980293274
1701290748113055500,10.011055419921876,-0.0991092398762703,0.8863165378570557,0.6450899839401245
1701290748123131400,10.02113134765625,-0.0025443462654948235,0.9492877721786499,0.6566734313964844
1701290748133206300,10.031206298828126,0.11936140805482864,1.0540587902069092,0.8083183765411377
1701290748143281400,10.041281494140625,0.23855091631412506,1.0240862369537354,0.9861009120941162
1701290748153356300,10.051356201171876,0.3079300820827484,0.9508821964263916,1.1085808277130127
1701290748163432400,10.061432373046875,0.3368070125579834,0.966091513633728,1.208455204963684
1701290748173507300,10.07150732421875,0.34991374611854553,0.9899379014968872,1.2335609197616577
1701290748183582200,10.081582275390625,0.3193528950214386,0.9989582300186157,1.2667242288589478
1701290748193658400,10.091658447265624,0.22091741859912872,0.8933225274085999,1.3015176057815552
1701290748203733500,10.1017333984375,0.09804370254278183,0.7166947722434998,1.3658510446548462
1701290748213808600,10.11180859375,-0.004863706883043051,0.4324367046356201,1.3316373825073242
1701290748223883300,10.12188330078125,-0.030767211690545082,0.22650671005249023,1.2686758041381836
1701290748233959400,10.13195947265625,0.08419206738471985,0.19534528255462646,1.3020858764648438
1701290748244034600,10.14203466796875,0.3711194396018982,0.34447723627090454,1.427013635635376
1701290748254109400,10.152109375,0.785801351070404,0.5581895709037781,1.5815186500549316
1701290748264184600,10.1621845703125,1.1806721687316895,0.6591124534606934,1.6633013486862183
1701290748274260500,10.172260498046874,1.4651950597763062,0.6484763026237488,1.7635692358016968
1701290748284335400,10.18233544921875,1.6314961910247803,0.562897264957428,1.8971728086471558
1701290748294410500,10.192410400390624,1.6718050241470337,0.5248019695281982,1.9364433288574219
1701290748304485400,10.2024853515625,1.6698734760284424,0.6883205771446228,1.8666913509368896
1701290748314561300,10.212561279296875,1.6580758094787598,1.0053625106811523,1.7436468601226807
1701290748324636400,10.222636474609375,1.612637996673584,1.2001361846923828,1.5946192741394043
1701290748334711300,10.232711181640624,1.491528868675232,1.1236772537231445,1.4794871807098389
1701290748344787500,10.242787353515626,1.2639439105987549,0.9289066791534424,1.4285502433776855
1701290748354862300,10.2528623046875,1.0360671281814575,0.6172987818717957,1.4014638662338257
1701290748364937200,10.262937255859375,0.9301507472991943,0.3939245641231537,1.3478925228118896
1701290748375012400,10.273012451171875,0.9109601974487305,0.37007176876068115,1.2679275274276733
1701290748385088500,10.283088623046876,0.8809090852737427,0.44040799140930176,1.1848372220993042
1701290748395163600,10.29316357421875,0.7891318798065186,0.5092602968215942,1.0952823162078857
1701290748405238300,10.30323828125,0.65826416015625,0.5029475688934326,1.0685303211212158
1701290748415313400,10.3133134765625,0.5730987191200256,0.33423998951911926,1.1423178911209106
1701290748425389600,10.3233896484375,0.5725983381271362,0.06118527054786682,1.2707674503326416
1701290748435464400,10.33346435546875,0.6051318049430847,-0.15325535833835602,1.3424906730651855
1701290748445539600,10.34353955078125,0.598456084728241,-0.2583295702934265,1.2840862274169922
1701290748455615500,10.353615478515625,0.5061248540878296,-0.3315168619155884,1.1034904718399048
1701290748465690400,10.3636904296875,0.35871461033821106,-0.42189013957977295,0.906917929649353
1701290748475765500,10.373765625,0.2136484980583191,-0.5001702904701233,0.7761961221694946
1701290748485840400,10.38384033203125,0.08429476618766785,-0.5599721074104309,0.7064468860626221
1701290748495916300,10.393916259765625,-0.05231926217675209,-0.629374623298645,0.6487364768981934
1701290748505991400,10.403991455078126,-0.2008914202451706,-0.6683534383773804,0.595120906829834
1701290748516066300,10.41406640625,-0.35952305793762207,-0.6816956996917725,0.5494991540908813
1701290748526141400,10.424141357421876,-0.5167925953865051,-0.6451299786567688,0.5096806883811951
1701290748536217300,10.43421728515625,-0.6463884115219116,-0.5695559978485107,0.4675009846687317
1701290748546292200,10.444292236328126,-0.7560568451881409,-0.450520396232605,0.4006154239177704
1701290748556367400,10.454367431640625,-0.8437735438346863,-0.2646246552467346,0.31766900420188904
1701290748566443500,10.464443603515624,-0.9198163747787476,-0.03739923611283302,0.2352103292942047
1701290748576518700,10.4745185546875,-0.9998973608016968,0.22693201899528503,0.17339198291301727
1701290748586593300,10.48459326171875,-1.0890237092971802,0.5121440887451172,0.12185768783092499
1701290748596668400,10.49466845703125,-1.180161476135254,0.8109059929847717,0.07022387534379959
1701290748606744600,10.50474462890625,-1.292672038078308,1.1161407232284546,0.026251090690493584
1701290748616819500,10.5148193359375,-1.414963960647583,1.3995753526687622,-0.02874283492565155
1701290748626894600,10.52489453125,-1.539435863494873,1.6369894742965698,-0.08349210023880005
1701290748636969200,10.53496923828125,-1.6378757953643799,1.7872015237808228,-0.10177789628505707
1701290748647045400,10.54504541015625,-1.7085806131362915,1.8933535814285278,-0.06864017993211746
1701290748657120500,10.55512060546875,-1.7348482608795166,1.9990873336791992,-0.0022696820087730885
1701290748667195400,10.5651953125,-1.7207428216934204,2.119426965713501,0.08352910727262497
1701290748677271300,10.575271240234375,-1.663434624671936,2.255971908569336,0.17341771721839905
1701290748687346400,10.585346435546874,-1.5487933158874512,2.321928024291992,0.2553064525127411
1701290748697421300,10.59542138671875,-1.3772778511047363,2.3431689739227295,0.28802409768104553
1701290748707496400,10.605496337890624,-1.2349401712417603,2.163289785385132,0.24633018672466278
1701290748717572400,10.615572265625,-1.174859642982483,1.8441009521484375,0.1462983340024948
1701290748727647200,10.625647216796875,-1.1927717924118042,1.4978716373443604,0.05574578791856766
1701290748737722400,10.635722412109375,-1.1991938352584839,1.209642767906189,-0.0314941443502903
1701290748747797500,10.645797607421875,-1.1280964612960815,0.9517354965209961,-0.14711394906044006
1701290748757873400,10.655873291015626,-1.0335876941680908,0.6906049251556396,-0.257398396730423
1701290748767948300,10.6659482421875,-0.9055792093276978,0.4913083612918854,-0.3445521891117096
1701290748778023400,10.6760234375,-0.6975215077400208,0.4186190366744995,-0.4434882700443268
1701290748788098300,10.686098388671875,-0.4305281639099121,0.4677165448665619,-0.5797129273414612
1701290748798174500,10.696174560546876,-0.23008845746517181,0.5697264075279236,-0.7457127571105957
1701290748808249600,10.70624951171875,-0.1268180012702942,0.6463990807533264,-0.887357771396637
1701290748818324200,10.71632421875,-0.0786714106798172,0.6344161629676819,-0.9359890818595886
1701290748828400400,10.726400390625,-0.057822324335575104,0.5869199633598328,-0.8878226280212402
1701290748838475500,10.7364755859375,-0.09677460789680481,0.4957853853702545,-0.7676020264625549
1701290748848550400,10.74655029296875,-0.1791595071554184,0.40103116631507874,-0.5945213437080383
1701290748858625500,10.75662548828125,-0.2179827094078064,0.43730291724205017,-0.38181859254837036
1701290748868701400,10.766701416015625,-0.22801589965820312,0.5709890723228455,-0.1879010647535324
1701290748878776300,10.7767763671875,-0.22988952696323395,0.654112696647644,-0.13892588019371033
1701290748888851500,10.7868515625,-0.20423954725265503,0.898450493812561,-0.231377512216568
1701290748898927400,10.79692724609375,-0.1293797791004181,1.288858413696289,-0.25105252861976624
1701290748909002200,10.807002197265625,0.06196754053235054,1.4504867792129517,0.044322673231363297
1701290748919077400,10.817077392578126,0.33758464455604553,1.3841426372528076,0.31788942217826843
1701290748929152500,10.827152587890625,0.5538269281387329,1.0659822225570679,0.3552301228046417
1701290748939228400,10.837228515625,0.6812798380851746,0.5615963339805603,0.2161695510149002
1701290748949303300,10.84730322265625,0.7143381834030151,0.13571502268314362,0.06314457952976227
1701290748959378400,10.85737841796875,0.6070313453674316,0.05869702249765396,-0.07226074486970901
1701290748969453300,10.867453369140625,0.4566689729690552,0.38438352942466736,-0.3532346487045288
1701290748979529500,10.877529541015624,0.39311981201171875,0.8454803228378296,-0.7738505601882935
1701290748989604400,10.887604248046875,0.21537059545516968,1.0116161108016968,-0.16383112967014313
1701290748999679200,10.89767919921875,0.052991271018981934,0.3644249737262726,0.9179736375808716
1701290749009755400,10.90775537109375,0.06934014707803726,-0.17850033938884735,1.161004662513733
1701290749019830500,10.91783056640625,-0.06372912973165512,-0.5217339396476746,0.9096657037734985
1701290749029905400,10.927905517578125,-0.15038466453552246,-0.7115012407302856,0.6405064463615417
1701290749039980300,10.937980224609374,-0.13439680635929108,-0.7114216685295105,0.43896278738975525
1701290749050056400,10.948056396484375,-0.05274483188986778,-0.27942848205566406,0.23708343505859375
1701290749060131300,10.95813134765625,0.07801441848278046,0.5126038789749146,0.008055484853684902
1701290749070206500,10.96820654296875,0.14922840893268585,1.0137863159179688,-0.2525401711463928
1701290749080281600,10.978281494140624,0.14743690192699432,0.9975553750991821,-0.49199482798576355
1701290749090357200,10.988357177734375,0.05933926999568939,0.7929604053497314,-0.6734841465950012
1701290749100432400,10.998432373046874,-0.0892358273267746,0.832977831363678,-0.8426077365875244
1701290749110507500,11.008507568359375,-0.18195298314094543,1.2392395734786987,-0.9122544527053833
1701290749120583700,11.018583740234375,-0.19496546685695648,1.674877405166626,-0.632233738899231
1701290749130658600,11.028658447265625,-0.1944408118724823,1.6348156929016113,-0.115516796708107
1701290749140733700,11.038733642578125,-0.17004358768463135,1.1987847089767456,0.20260632038116455
1701290749150808600,11.04880859375,-0.16121786832809448,0.8611113429069519,0.24616524577140808
1701290749160884700,11.058884765625,-0.21507097780704498,0.7866909503936768,0.24878714978694916
1701290749170959600,11.068959716796876,-0.2746584117412567,0.8682875037193298,0.3334045708179474
1701290749181034500,11.079034423828125,-0.30864566564559937,0.9572556018829346,0.4565086364746094
1701290749191109600,11.089109619140626,-0.3284020721912384,0.9340535998344421,0.49284932017326355
1701290749201185800,11.099185791015625,-0.33894971013069153,0.8577062487602234,0.43041905760765076
1701290749211260700,11.1092607421875,-0.33050188422203064,0.8142663836479187,0.3056260049343109
1701290749221335600,11.11933544921875,-0.28554949164390564,0.7503958344459534,0.17479218542575836
1701290749231410700,11.12941064453125,-0.22233697772026062,0.5977370142936707,0.07856257259845734
1701290749241486800,11.13948681640625,-0.16038581728935242,0.418341726064682,0.015851980075240135
1701290749251561700,11.149561767578126,-0.09650589525699615,0.3134984076023102,-0.01209762878715992
1701290749261636600,11.15963671875,-0.023394407704472542,0.29334595799446106,-0.007587839849293232
1701290749271712800,11.169712646484374,0.052058540284633636,0.367021769285202,0.014650354161858559
1701290749281787600,11.17978759765625,0.11451224237680435,0.5192989110946655,0.042581766843795776
1701290749291862800,11.18986279296875,0.1674729287624359,0.5996131896972656,0.11220158636569977
1701290749301937700,11.199937744140625,0.21281766891479492,0.521656334400177,0.21939398348331451
1701290749312013600,11.210013671875,0.21524567902088165,0.3655068874359131,0.27544260025024414
1701290749322088700,11.220088623046875,0.16724495589733124,0.26617780327796936,0.2502273619174957
1701290749332163600,11.23016357421875,0.1225198358297348,0.26213088631629944,0.2030249685049057
1701290749342238700,11.24023876953125,0.10514937341213226,0.31597015261650085,0.22430789470672607
1701290749352314600,11.250314697265624,0.09838174283504486,0.40613600611686707,0.3505321443080902
1701290749362389500,11.260389404296875,0.08546850830316544,0.4377933442592621,0.5590303540229797
1701290749372464600,11.270464599609374,0.04796108603477478,0.28721579909324646,0.7415711283683777
1701290749382540800,11.280540771484375,-0.024556154385209084,0.07934363186359406,0.7880373001098633
1701290749392615700,11.29061572265625,-0.11550284177064896,-0.05629035830497742,0.7432722449302673
1701290749402690600,11.300690673828125,-0.1566716879606247,-0.09288597851991653,0.6909329891204834
1701290749412765700,11.310765625,-0.12463413178920746,0.0011499738320708275,0.6595756411552429
1701290749422841900,11.320841796875,-0.051854632794857025,0.20910201966762543,0.6605456471443176
1701290749432916700,11.330916748046874,0.033351074904203415,0.6583762168884277,0.7592602372169495
1701290749442991600,11.34099169921875,0.12298988550901413,1.1424190998077393,1.0266584157943726
1701290749453066500,11.35106640625,0.1939506083726883,1.0991156101226807,1.1564675569534302
1701290749463142700,11.361142578125,0.2257056087255478,0.7574986815452576,1.0344843864440918
1701290749473217800,11.3712177734375,0.19766944646835327,0.5986635088920593,0.881384015083313
1701290749483292700,11.381292724609375,0.08709944039583206,0.7088460326194763,0.8105502128601074
1701290749493368600,11.39136865234375,0.01986607536673546,0.9312231540679932,0.8429926037788391
1701290749503443700,11.401443603515625,0.09337224811315536,1.170027494430542,1.0211220979690552
1701290749513518600,11.4115185546875,0.25594544410705566,1.3291274309158325,1.2960647344589233
1701290749523593700,11.42159375,0.43078240752220154,1.4207055568695068,1.4696537256240845
1701290749533669600,11.431669677734375,0.5430359840393066,1.4571564197540283,1.4452120065689087
1701290749543744500,11.44174462890625,0.5640565156936646,1.4854142665863037,1.4063612222671509
1701290749553819600,11.451819580078125,0.5642069578170776,1.4749419689178467,1.485337734222412
1701290749563894800,11.461894775390626,0.5737663507461548,1.2713356018066406,1.5386428833007812
1701290749573970400,11.471970458984375,0.618428647518158,1.0252324342727661,1.4842288494110107
1701290749584045600,11.482045654296876,0.6764604449272156,0.8033790588378906,1.4733673334121704
1701290749594120700,11.49212060546875,0.734636664390564,0.5932766795158386,1.521136999130249
1701290749604196900,11.50219677734375,0.8338635563850403,0.4397183656692505,1.5918155908584595
1701290749614271700,11.512271728515625,0.9480940103530884,0.30202656984329224,1.5952789783477783
1701290749624346600,11.5223466796875,1.0547113418579102,0.13414743542671204,1.5200387239456177
1701290749634421500,11.53242138671875,1.1149135828018188,0.03653566539287567,1.5111030340194702
1701290749644497700,11.54249755859375,1.1352150440216064,0.08756974339485168,1.5372090339660645
1701290749654572800,11.55257275390625,1.1626466512680054,0.326564222574234,1.5200353860855103
1701290749664647700,11.562647705078126,1.216341257095337,0.7924705743789673,1.5012761354446411
1701290749674722600,11.57272265625,1.2442810535430908,1.269905686378479,1.483202576637268
1701290749684798700,11.582798828125,1.1561769247055054,1.5289337635040283,1.4292573928833008
1701290749694873600,11.59287353515625,0.9851775765419006,1.4568012952804565,1.319262981414795
1701290749704948700,11.60294873046875,0.8491489887237549,1.0698542594909668,1.2135480642318726
1701290749715024600,11.613024658203125,0.7952564358711243,0.6736511588096619,1.1648324728012085
1701290749725099500,11.623099609375,0.7665155529975891,0.46848002076148987,1.1564701795578003
1701290749735174700,11.633174560546875,0.6931456923484802,0.3932494521141052,1.1383185386657715
1701290749745249800,11.643249755859374,0.5315607786178589,0.38409122824668884,1.1041704416275024
1701290749755325400,11.653325439453125,0.34595948457717896,0.40050774812698364,1.0757390260696411
1701290749765400600,11.663400634765624,0.21243995428085327,0.41853517293930054,1.0468897819519043
1701290749775475700,11.673475830078125,0.1492660492658615,0.3742540180683136,1.0268055200576782
1701290749785550600,11.683550537109374,0.13237228989601135,0.31019073724746704,1.0204874277114868
1701290749795626800,11.693626708984375,0.10217124968767166,0.2816810607910156,0.9721782207489014
1701290749805701600,11.70370166015625,0.03962983563542366,0.2861860394477844,0.8744150996208191
1701290749815776500,11.713776611328125,-0.04317423701286316,0.2889530658721924,0.7615405321121216
1701290749825852700,11.723852783203125,-0.13268014788627625,0.23297637701034546,0.6669458746910095
1701290749835927800,11.733927734375,-0.23007461428642273,0.1279498189687729,0.6040846109390259
1701290749846002700,11.744002685546874,-0.3398326337337494,0.013298029080033302,0.5518242120742798
1701290749856077600,11.75407763671875,-0.4506768584251404,-0.08124391734600067,0.5012782216072083
1701290749866153700,11.76415380859375,-0.5406607389450073,-0.08939062803983688,0.43692252039909363
1701290749876228600,11.774228515625,-0.6173536777496338,-0.009456109255552292,0.36205145716667175
1701290749886303700,11.7843037109375,-0.693020224571228,0.13389728963375092,0.3091284930706024
1701290749896379000,11.79437890625,-0.7692777514457703,0.3006924092769623,0.2814055383205414
1701290749906454500,11.80445458984375,-0.837165892124176,0.41011014580726624,0.29196611046791077
1701290749916529700,11.81452978515625,-0.9084458947181702,0.44027870893478394,0.336027055978775
1701290749926604800,11.824604736328125,-0.9639973044395447,0.4394253194332123,0.3998394012451172
1701290749936680400,11.834680419921876,-1.0008769035339355,0.47663846611976624,0.4566129148006439
1701290749946755600,11.844755615234375,-1.0271668434143066,0.6083069443702698,0.4705298840999603
1701290749956830700,11.854830810546876,-1.0621508359909058,0.8289815187454224,0.46359848976135254
1701290749966905600,11.864905517578125,-1.1434710025787354,1.067191481590271,0.449925035238266
1701290749976981800,11.874981689453126,-1.2420942783355713,1.2554702758789062,0.43331223726272583
1701290749987056600,11.885056640625,-1.3300775289535522,1.3880014419555664,0.43338796496391296
1701290749997131500,11.895131591796876,-1.3893027305603027,1.5023729801177979,0.4576285779476166
1701290750007206700,11.90520654296875,-1.4031602144241333,1.587143063545227,0.5053649544715881
1701290750017282800,11.91528271484375,-1.344732403755188,1.6593730449676514,0.5280766487121582
1701290750027357700,11.925357666015625,-1.231048822402954,1.7363072633743286,0.5057571530342102
1701290750037432600,11.9354326171875,-1.1133512258529663,1.7807402610778809,0.4324432611465454
1701290750047508700,11.9455087890625,-1.035935401916504,1.8466171026229858,0.33603566884994507
1701290750057583600,11.95558349609375,-1.0130995512008667,1.9123833179473877,0.24534064531326294
1701290750067658800,11.96565869140625,-1.0032888650894165,1.9146770238876343,0.14101672172546387
1701290750077733600,11.975733642578126,-0.9711634516716003,1.8790881633758545,-0.0056840418837964535
1701290750087809500,11.9858095703125,-0.9074184894561768,1.7775819301605225,-0.19026099145412445
1701290750097884700,11.995884765625,-0.8175370693206787,1.5511060953140259,-0.3757690489292145
1701290750107959800,12.005959716796875,-0.6983839273452759,1.2395249605178833,-0.5338137149810791
1701290750118034200,12.0160341796875,-0.5688110589981079,0.9696452617645264,-0.6517658829689026
1701290750128109800,12.02610986328125,-0.43642982840538025,0.8330340385437012,-0.7345811724662781
1701290750138185000,12.03618505859375,-0.3061695694923401,0.8251872658729553,-0.7694001793861389
1701290750148260000,12.046260009765625,-0.18827693164348602,0.8378375768661499,-0.747819721698761
1701290750158336300,12.056336181640624,-0.12290963530540466,0.7688902020454407,-0.6700820326805115
1701290750168411100,12.0664111328125,-0.0946044921875,0.5964211225509644,-0.5221590995788574
1701290750178486000,12.076486083984374,-0.06216825917363167,0.4031813442707062,-0.342899888753891
1701290750188561000,12.086560791015625,-0.023807289078831673,0.30434516072273254,-0.19775813817977905
1701290750198637000,12.096636962890624,0.00375669589266181,0.3735854923725128,-0.12798410654067993
1701290750208712200,12.106712158203125,0.03068951703608036,0.5568975806236267,-0.03325626626610756
1701290750218787000,12.116787109375,0.10224412381649017,0.7072300910949707,0.11443997919559479
1701290750228862000,12.126862060546875,0.25934773683547974,0.7918696999549866,0.28305482864379883
1701290750238938000,12.136938232421874,0.4658721387386322,0.8637968897819519,0.47840994596481323
1701290750249013000,12.147012939453125,0.6906524300575256,1.081537127494812,0.6117066740989685
1701290750259088100,12.157088134765624,0.8074818253517151,1.245565414428711,0.5498169660568237
1701290750269163000,12.1671630859375,0.6923129558563232,1.1024069786071777,0.17723217606544495
1701290750279239000,12.177239013671874,0.39102017879486084,0.7335606813430786,-0.14718878269195557
1701290750289314000,12.18731396484375,0.11626210808753967,0.42667171359062195,-0.3623487651348114
1701290750299389200,12.19738916015625,0.07170609384775162,0.5539926886558533,-0.5378684401512146
1701290750309464800,12.20746484375,0.39535918831825256,1.0865548849105835,-0.12408648431301117
1701290750319540000,12.2175400390625,0.9137152433395386,1.1142168045043945,1.0173842906951904
1701290750329615000,12.227614990234375,0.8881945610046387,0.18374845385551453,1.381123423576355
1701290750339690000,12.23768994140625,0.4492558538913727,-1.0712100267410278,0.8038660287857056
1701290750349766100,12.24776611328125,0.1712050884962082,-1.4163286685943604,0.5107952952384949
1701290750359841000,12.257841064453125,0.06264025717973709,-1.2571823596954346,0.431769996881485
1701290750369916000,12.267916015625,0.07699362188577652,-1.100312352180481,0.38896316289901733
1701290750379992000,12.277991943359375,0.01941394992172718,-0.850146472454071,0.41862356662750244
1701290750390067200,12.288067138671876,-0.12587319314479828,-0.35696205496788025,0.39829325675964355
1701290750400142000,12.29814208984375,-0.3232962489128113,0.21691188216209412,0.19071663916110992
1701290750410217000,12.308217041015626,-0.45104852318763733,0.6839129328727722,-0.22419658303260803
1701290750420293000,12.318293212890625,-0.42748141288757324,0.7464516758918762,-0.7140060067176819
1701290750430368000,12.328367919921876,-0.2809891998767853,0.4705159366130829,-1.0740591287612915
1701290750440443100,12.338443115234375,-0.22064438462257385,0.1886027753353119,-1.2713350057601929
1701290750450518000,12.34851806640625,-0.3314664661884308,0.7226866483688354,-1.4796741008758545
1701290750460594000,12.358593994140625,-0.43792715668678284,2.401007890701294,-1.34968101978302
1701290750470669000,12.3686689453125,-0.2794495224952698,2.606388568878174,-0.4039156436920166
1701290750480744200,12.378744140625,-0.21007710695266724,1.1744050979614258,0.2870718538761139
1701290750490819800,12.38881982421875,-0.25901472568511963,-0.0862814262509346,0.20599332451820374
1701290750500895000,12.39889501953125,-0.30789199471473694,-0.5156908631324768,-0.1863267868757248
1701290750510970000,12.40897021484375,-0.318765789270401,-0.4276338517665863,-0.37497347593307495
1701290750521045000,12.419044921875,-0.29593583941459656,0.0003792606294155121,-0.30194374918937683
1701290750531121000,12.429120849609374,-0.2674357295036316,0.5675702095031738,-0.10870850831270218
1701290750541196000,12.439196044921875,-0.2563979923725128,0.8953100442886353,0.027376094833016396
1701290750551271000,12.44927099609375,-0.24258871376514435,0.885617733001709,0.02680724300444126
1701290750561346000,12.459345947265625,-0.22131751477718353,0.660649836063385,-0.06370588392019272
1701290750571422200,12.469422119140624,-0.20562103390693665,0.38779759407043457,-0.1605234295129776
1701290750581496800,12.479496826171875,-0.18971343338489532,0.19108960032463074,-0.2245205193758011
