time,seconds_elapsed,z,y,x
1701290234815127300,0.018127197265625,-0.388916015625,0.4702606201171875,0.7966766357421875
1701290234825202400,0.028202392578125,-0.3905181884765625,0.470855712890625,0.803375244140625
1701290234835278600,0.038278564453125,-0.3953399658203125,0.479034423828125,0.8053741455078125
1701290234845353700,0.048353759765625,-0.398162841796875,0.4825286865234375,0.801422119140625
1701290234855429400,0.058429443359375,-0.3901519775390625,0.48211669921875,0.7965545654296875
1701290234865504500,0.06850439453125,-0.385986328125,0.4811248779296875,0.78851318359375
1701290234875580700,0.07858056640625,-0.38555908203125,0.47698974609375,0.7914581298828125
1701290234885655300,0.0886552734375,-0.3865814208984375,0.4673004150390625,0.79986572265625
1701290234895731500,0.0987314453125,-0.3884429931640625,0.4585723876953125,0.79693603515625
1701290234905806600,0.108806640625,-0.3931732177734375,0.457916259765625,0.7978668212890625
1701290234915882500,0.118882568359375,-0.394439697265625,0.4548187255859375,0.8029022216796875
1701290234925958400,0.12895849609375,-0.3859405517578125,0.44677734375,0.800079345703125
1701290234936033500,0.139033447265625,-0.37298583984375,0.4423370361328125,0.78887939453125
1701290234946109400,0.149109375,-0.3668060302734375,0.4077606201171875,0.767242431640625
1701290234956184300,0.159184326171875,-0.36273193359375,0.4505462646484375,0.78759765625
1701290234966260500,0.169260498046875,-0.3766021728515625,0.4711761474609375,0.8008270263671875
1701290234976335600,0.179335693359375,-0.393951416015625,0.4586334228515625,0.7946319580078125
1701290234986411500,0.18941162109375,-0.3907623291015625,0.4719390869140625,0.7976226806640625
1701290234996486400,0.199486328125,-0.3827972412109375,0.4691619873046875,0.8010406494140625
1701290235006562600,0.2095625,-0.3690948486328125,0.4753265380859375,0.795989990234375
1701290235016637400,0.219637451171875,-0.3619537353515625,0.478271484375,0.788787841796875
1701290235026713300,0.22971337890625,-0.3589019775390625,0.4794769287109375,0.78369140625
1701290235036788500,0.23978857421875,-0.3599853515625,0.4650421142578125,0.7819061279296875
1701290235046864400,0.249864501953125,-0.38092041015625,0.429443359375,0.784210205078125
1701290235056940500,0.2599404296875,-0.3889617919921875,0.468536376953125,0.780914306640625
1701290235067015400,0.270015380859375,-0.340606689453125,0.482696533203125,0.7735443115234375
1701290235077091300,0.28009130859375,-0.3229217529296875,0.465972900390625,0.7779541015625
1701290235087166500,0.29016650390625,-0.324371337890625,0.4698944091796875,0.78778076171875
1701290235097242600,0.30024267578125,-0.3335418701171875,0.4912261962890625,0.79925537109375
1701290235107317500,0.3103173828125,-0.3641357421875,0.500579833984375,0.81549072265625
1701290235117393400,0.320393310546875,-0.3842620849609375,0.506805419921875,0.813934326171875
1701290235127468500,0.330468505859375,-0.3723297119140625,0.530548095703125,0.79681396484375
1701290235137544400,0.34054443359375,-0.3531494140625,0.5316619873046875,0.791839599609375
1701290235147619600,0.35061962890625,-0.33837890625,0.52520751953125,0.7932586669921875
1701290235157695500,0.360695556640625,-0.3225860595703125,0.507171630859375,0.7823638916015625
1701290235167771600,0.370771728515625,-0.31109619140625,0.4749908447265625,0.7698822021484375
1701290235177846800,0.3808466796875,-0.3020172119140625,0.474884033203125,0.77960205078125
1701290235187922700,0.390922607421875,-0.2984466552734375,0.4522247314453125,0.794677734375
1701290235197997800,0.400997802734375,-0.3000946044921875,0.4532012939453125,0.7917633056640625
1701290235208073700,0.41107373046875,-0.299530029296875,0.468963623046875,0.7719879150390625
1701290235218148600,0.421148681640625,-0.271697998046875,0.4553680419921875,0.7347564697265625
1701290235228224800,0.431224853515625,-0.21490478515625,0.431640625,0.6815338134765625
1701290235238300000,0.4412998046875,-0.186126708984375,0.4185333251953125,0.65911865234375
1701290235248375800,0.451375732421875,-0.201995849609375,0.40948486328125,0.647064208984375
1701290235258450700,0.46145068359375,-0.235260009765625,0.4321441650390625,0.6685791015625
1701290235268526800,0.47152685546875,-0.2299041748046875,0.4519195556640625,0.7012939453125
1701290235278602800,0.481602783203125,-0.200347900390625,0.4972686767578125,0.707183837890625
1701290235288678000,0.491677978515625,-0.1765899658203125,0.5525054931640625,0.6761322021484375
1701290235298753800,0.50175390625,-0.163177490234375,0.6042938232421875,0.6569061279296875
1701290235308829000,0.511828857421875,-0.158660888671875,0.6150054931640625,0.646148681640625
1701290235318904800,0.52190478515625,-0.1335906982421875,0.600921630859375,0.6297454833984375
1701290235328979700,0.531979736328125,-0.108642578125,0.5970916748046875,0.59979248046875
1701290235339055900,0.542055908203125,0.0226898193359375,0.62493896484375,0.5690765380859375
1701290235349130800,0.552130859375,0.0884857177734375,0.6458740234375,0.556793212890625
1701290235359207000,0.56220703125,-0.015411376953125,0.6895599365234375,0.5522003173828125
1701290235369281800,0.57228173828125,-0.1399688720703125,0.735504150390625,0.5581512451171875
1701290235379357700,0.582357666015625,-0.2234344482421875,0.773345947265625,0.5662384033203125
1701290235389433900,0.592433837890625,-0.2562713623046875,0.81207275390625,0.5746002197265625
1701290235399508700,0.6025087890625,-0.2403717041015625,0.8104705810546875,0.581024169921875
1701290235409584600,0.612584716796875,-0.18603515625,0.7612762451171875,0.561279296875
1701290235419659800,0.62265966796875,-0.1342010498046875,0.705108642578125,0.5182647705078125
1701290235429736000,0.63273583984375,-0.0684814453125,0.704498291015625,0.486175537109375
1701290235439810800,0.642810791015625,-0.0206451416015625,0.7635345458984375,0.4764251708984375
1701290235449886700,0.65288671875,-0.001007080078125,0.8784027099609375,0.4387359619140625
1701290235459961900,0.6629619140625,0.04144287109375,0.9771728515625,0.4427337646484375
1701290235470038000,0.6730380859375,0.0082244873046875,0.9481353759765625,0.5166168212890625
1701290235480113700,0.68311376953125,0.04205322265625,0.8826446533203125,0.53900146484375
1701290235490188800,0.693188720703125,0.0552520751953125,0.9563751220703125,0.6649932861328125
1701290235500265000,0.703264892578125,0.0100860595703125,1.0779266357421875,0.8970184326171875
1701290235510339800,0.71333984375,-0.0436553955078125,1.0693817138671875,0.9483184814453125
1701290235520415700,0.723415771484375,-0.0631866455078125,0.9960784912109375,0.8811798095703125
1701290235530491000,0.733490966796875,-0.054718017578125,0.976959228515625,0.8148651123046875
1701290235540567000,0.743567138671875,0.0111083984375,1.039825439453125,0.744049072265625
1701290235550641700,0.7536416015625,0.060150146484375,1.09619140625,0.5813446044921875
1701290235560717800,0.7637177734375,0.0411376953125,1.07501220703125,0.3984222412109375
1701290235570793000,0.77379296875,0.012359619140625,1.05279541015625,0.267791748046875
1701290235580868600,0.78386865234375,-0.010223388671875,1.05804443359375,0.2030487060546875
1701290235590944800,0.79394482421875,-0.017059326171875,1.096405029296875,0.2093963623046875
1701290235601020000,0.80402001953125,-0.024749755859375,1.1436004638671875,0.2437591552734375
1701290235611095800,0.814095703125,-0.0336151123046875,1.1569976806640625,0.2543487548828125
1701290235621170700,0.824170654296875,-0.024658203125,1.1974945068359375,0.2873687744140625
1701290235631246800,0.834246826171875,-0.0192413330078125,1.235382080078125,0.3297576904296875
1701290235641322000,0.844322021484375,-0.0080108642578125,1.2573089599609375,0.36346435546875
1701290235651397600,0.854397705078125,-0.006866455078125,1.2261199951171875,0.350555419921875
1701290235661472800,0.86447265625,-0.0066375732421875,1.1599578857421875,0.297576904296875
1701290235671549000,0.874548828125,-0.00347900390625,1.0973968505859375,0.2352752685546875
1701290235681623800,0.884623779296875,-0.0005950927734375,1.04107666015625,0.1868743896484375
1701290235691699700,0.89469970703125,0.0068511962890625,0.9588470458984375,0.1324462890625
1701290235701776000,0.90477587890625,0.01727294921875,0.83148193359375,0.0687255859375
1701290235711851000,0.91485107421875,0.0171661376953125,0.7242431640625,0.0419464111328125
1701290235721927000,0.924927001953125,0.0592193603515625,0.6221923828125,0.0224456787109375
1701290235732001800,0.935001708984375,0.05035400390625,0.77801513671875,0.1610870361328125
1701290235742078000,0.945077880859375,0.0197601318359375,0.979034423828125,0.2855377197265625
1701290235752152800,0.95515283203125,0.012451171875,1.035552978515625,0.2823333740234375
1701290235762228700,0.965228759765625,0.0186920166015625,1.0190582275390625,0.2251129150390625
1701290235772304000,0.975303955078125,0.03125,0.9806060791015625,0.1860198974609375
1701290235782379800,0.9853798828125,0.0347137451171875,0.9580535888671875,0.186431884765625
1701290235792454700,0.99545458984375,0.0325469970703125,0.9512786865234375,0.210052490234375
1701290235802530800,1.00553076171875,0.0404205322265625,0.9495391845703125,0.2472076416015625
1701290235812606700,1.015606689453125,0.05670166015625,0.9448394775390625,0.2830047607421875
1701290235822681900,1.025681884765625,0.05615234375,0.936676025390625,0.307525634765625
1701290235832757800,1.0357578125,0.0431671142578125,0.9416656494140625,0.318939208984375
1701290235842833000,1.0458330078125,0.03570556640625,0.9547119140625,0.310150146484375
1701290235852908800,1.05590869140625,0.04156494140625,0.96612548828125,0.290191650390625
1701290235862983700,1.065983642578125,0.04388427734375,0.9842681884765625,0.253082275390625
1701290235873059800,1.076059814453125,0.041473388671875,0.9916839599609375,0.2097930908203125
1701290235883134700,1.086134765625,0.039825439453125,0.9835968017578125,0.1820526123046875
1701290235893211000,1.0962109375,0.0371246337890625,0.980010986328125,0.16546630859375
1701290235903285800,1.10628564453125,0.041534423828125,0.9828338623046875,0.1533966064453125
1701290235913361700,1.116361572265625,0.05084228515625,0.9866180419921875,0.1594085693359375
1701290235923437800,1.126437744140625,0.05584716796875,0.9931488037109375,0.1746368408203125
1701290235933513000,1.136512939453125,0.0498504638671875,0.9913330078125,0.19110107421875
1701290235943588600,1.146588623046875,0.0465545654296875,0.98175048828125,0.2034759521484375
1701290235953663700,1.156663818359375,0.0469512939453125,0.970367431640625,0.207550048828125
1701290235963740000,1.166739990234375,0.0501708984375,0.962982177734375,0.2182159423828125
1701290235973814800,1.176814697265625,0.0466766357421875,0.967559814453125,0.240875244140625
1701290235983890700,1.186890625,0.0473175048828125,0.9707489013671875,0.2554168701171875
1701290235993965800,1.1969658203125,0.047576904296875,0.9691162109375,0.2626953125
1701290236004042000,1.2070419921875,0.0475006103515625,0.966583251953125,0.270050048828125
1701290236014116900,1.217116943359375,0.047149658203125,0.963592529296875,0.2686614990234375
1701290236024192800,1.22719287109375,0.045318603515625,0.9633636474609375,0.2677001953125
1701290236034268000,1.237267822265625,0.0391998291015625,0.9613494873046875,0.2716064453125
1701290236044343800,1.24734375,0.0395355224609375,0.9624176025390625,0.276519775390625
1701290236054419700,1.257419677734375,0.0470123291015625,0.9649505615234375,0.2763824462890625
1701290236064494800,1.267494873046875,0.0572357177734375,0.966156005859375,0.2681427001953125
1701290236074571000,1.277571044921875,0.0638427734375,0.964385986328125,0.2548065185546875
1701290236084645600,1.287645751953125,0.0632476806640625,0.962921142578125,0.24017333984375
1701290236094721800,1.2977216796875,0.0580902099609375,0.9668426513671875,0.2317962646484375
1701290236104797000,1.307796875,0.0554962158203125,0.9740753173828125,0.232666015625
1701290236114872800,1.317872802734375,0.057861328125,0.9750518798828125,0.2333984375
1701290236124947700,1.32794775390625,0.0632781982421875,0.97393798828125,0.232177734375
1701290236135023900,1.33802392578125,0.067138671875,0.966217041015625,0.224517822265625
1701290236145099000,1.34809912109375,0.0634613037109375,0.957061767578125,0.214935302734375
1701290236155174700,1.358174560546875,0.0612030029296875,0.9579925537109375,0.2154083251953125
1701290236165250800,1.368250732421875,0.0639495849609375,0.9681854248046875,0.2204132080078125
1701290236175326000,1.378325927734375,0.0753173828125,0.9757232666015625,0.21929931640625
1701290236185401900,1.38840185546875,0.080810546875,0.9777374267578125,0.215118408203125
1701290236195477000,1.39847705078125,0.0799102783203125,0.9773712158203125,0.21099853515625
1701290236205553200,1.40855322265625,0.07965087890625,0.9723968505859375,0.203460693359375
1701290236215628000,1.4186279296875,0.079345703125,0.971343994140625,0.2033843994140625
1701290236225704000,1.428703857421875,0.0773468017578125,0.9713134765625,0.20489501953125
1701290236235779000,1.438779052734375,0.0782623291015625,0.977020263671875,0.2037200927734375
1701290236245855000,1.44885498046875,0.078582763671875,0.9796142578125,0.201751708984375
1701290236255929900,1.458929931640625,0.074432373046875,0.9783782958984375,0.1986083984375
1701290236266006000,1.469006103515625,0.068603515625,0.977142333984375,0.1985931396484375
1701290236276081000,1.479080810546875,0.0691070556640625,0.9754486083984375,0.1998291015625
1701290236286156800,1.48915673828125,0.07366943359375,0.9742279052734375,0.2064056396484375
1701290236296233000,1.49923291015625,0.080291748046875,0.9730377197265625,0.2091064453125
1701290236306308000,1.50930810546875,0.0802001953125,0.97418212890625,0.211517333984375
1701290236316383700,1.5193837890625,0.076416015625,0.9774627685546875,0.2130889892578125
1701290236326459000,1.529458984375,0.07421875,0.977752685546875,0.2201995849609375
1701290236336535000,1.53953515625,0.07379150390625,0.976654052734375,0.223785400390625
1701290236346610000,1.54960986328125,0.0786285400390625,0.9747772216796875,0.229339599609375
1701290236356685800,1.559685791015625,0.0811767578125,0.9721527099609375,0.2305145263671875
1701290236366761000,1.569760986328125,0.079864501953125,0.96978759765625,0.23046875
1701290236376837000,1.579837158203125,0.0755767822265625,0.9718475341796875,0.2245330810546875
1701290236386911700,1.589911865234375,0.0659942626953125,0.9769744873046875,0.2210693359375
1701290236396988000,1.59998779296875,0.058929443359375,0.9803924560546875,0.2235260009765625
1701290236407063000,1.61006298828125,0.0589752197265625,0.9765167236328125,0.2294769287109375
1701290236417139000,1.620138916015625,0.0691986083984375,0.971771240234375,0.233642578125
1701290236427214800,1.63021484375,0.0801849365234375,0.969573974609375,0.228363037109375
1701290236437290000,1.6402900390625,0.08172607421875,0.9729461669921875,0.2224578857421875
1701290236447366000,1.650365966796875,0.0721282958984375,0.9781951904296875,0.2134857177734375
1701290236457440800,1.660440673828125,0.0670166015625,0.97576904296875,0.207183837890625
1701290236467517000,1.670516845703125,0.0700836181640625,0.970916748046875,0.206207275390625
1701290236477592000,1.680592041015625,0.076507568359375,0.9714508056640625,0.2036590576171875
1701290236487668000,1.69066796875,0.07904052734375,0.9786529541015625,0.2047271728515625
1701290236497742800,1.700742919921875,0.0712432861328125,0.983978271484375,0.2061767578125
1701290236507819000,1.710819091796875,0.0579833984375,0.9739532470703125,0.204803466796875
1701290236517894100,1.72089404296875,0.0535888671875,0.967864990234375,0.2059478759765625
1701290236527969800,1.7309697265625,0.06280517578125,0.9722747802734375,0.2094268798828125
1701290236538046000,1.7410458984375,0.0756072998046875,0.9794769287109375,0.21478271484375
1701290236548121000,1.75112109375,0.0806121826171875,0.98046875,0.22015380859375
1701290236558197000,1.761197021484375,0.0820770263671875,0.9753875732421875,0.2259521484375
1701290236568272000,1.77127197265625,0.0792083740234375,0.962860107421875,0.225830078125
1701290236578348000,1.78134814453125,0.0851593017578125,0.9564056396484375,0.226165771484375
1701290236588423000,1.7914228515625,0.0947418212890625,0.9576263427734375,0.2310333251953125
1701290236598499000,1.8014990234375,0.0975494384765625,0.9634552001953125,0.234954833984375
1701290236608574000,1.811573974609375,0.083740234375,0.9736328125,0.2326812744140625
1701290236618649900,1.82164990234375,0.0605621337890625,0.98382568359375,0.224609375
1701290236628725000,1.83172509765625,0.0394744873046875,0.9883575439453125,0.208770751953125
1701290236638801000,1.84180078125,0.0260162353515625,0.988433837890625,0.2006988525390625
1701290236648876000,1.8518759765625,0.032012939453125,0.98712158203125,0.201080322265625
1701290236658952000,1.861951904296875,0.0490875244140625,0.98193359375,0.20721435546875
1701290236669028000,1.872028076171875,0.063812255859375,0.97467041015625,0.21759033203125
1701290236679103000,1.88210302734375,0.073089599609375,0.963653564453125,0.2235107421875
1701290236689179000,1.892178955078125,0.07440185546875,0.9594573974609375,0.2248077392578125
1701290236699254000,1.90225390625,0.0734710693359375,0.959930419921875,0.2242584228515625
1701290236709330000,1.912329833984375,0.070098876953125,0.9597930908203125,0.2273712158203125
1701290236719405000,1.922405029296875,0.0736083984375,0.96160888671875,0.2362213134765625
1701290236729481000,1.93248095703125,0.0794830322265625,0.9658050537109375,0.243865966796875
1701290236739555800,1.942555908203125,0.0817108154296875,0.966949462890625,0.24859619140625
1701290236749632000,1.952632080078125,0.0807647705078125,0.9653472900390625,0.249237060546875
1701290236759707000,1.962706787109375,0.074493408203125,0.9637908935546875,0.243316650390625
1701290236769783000,1.972782958984375,0.06884765625,0.963470458984375,0.238006591796875
1701290236779858000,1.98285791015625,0.067474365234375,0.9703521728515625,0.2320556640625
1701290236789933800,1.992933837890625,0.0695037841796875,0.9739837646484375,0.2259063720703125
1701290236800010000,2.003010009765625,0.0667877197265625,0.973907470703125,0.2165985107421875
1701290236810085000,2.013085205078125,0.0613861083984375,0.9753875732421875,0.2079315185546875
1701290236820160800,2.023160888671875,0.0559539794921875,0.97406005859375,0.2058868408203125
1701290236830236000,2.03323583984375,0.0573883056640625,0.9719085693359375,0.2080535888671875
1701290236840312000,2.04331201171875,0.0646820068359375,0.9716644287109375,0.21038818359375
1701290236850387000,2.053386962890625,0.0755767822265625,0.9699859619140625,0.214599609375
1701290236860462800,2.063462890625,0.0814208984375,0.965911865234375,0.2193603515625
1701290236870538000,2.0735380859375,0.0858917236328125,0.9625091552734375,0.2240142822265625
1701290236880614100,2.0836142578125,0.0802764892578125,0.9593353271484375,0.22637939453125
1701290236890689000,2.09368896484375,0.0724334716796875,0.96038818359375,0.2298431396484375
1701290236900765000,2.103764892578125,0.067474365234375,0.9661712646484375,0.2328338623046875
1701290236910841000,2.113841064453125,0.06549072265625,0.9671783447265625,0.2332305908203125
1701290236920916000,2.123916015625,0.0644683837890625,0.9656219482421875,0.23504638671875
1701290236930991900,2.133991943359375,0.068023681640625,0.9643096923828125,0.2332611083984375
1701290236941067000,2.14406689453125,0.07000732421875,0.960662841796875,0.2332305908203125
1701290236951143000,2.154142822265625,0.067352294921875,0.9602203369140625,0.230133056640625
1701290236961217800,2.1642177734375,0.0625457763671875,0.96343994140625,0.2303466796875
1701290236971294000,2.1742939453125,0.0600128173828125,0.9698028564453125,0.229339599609375
1701290236981369000,2.184369140625,0.0572052001953125,0.977386474609375,0.23101806640625
1701290236991445000,2.194445068359375,0.058624267578125,0.979522705078125,0.2335968017578125
1701290237001519900,2.204519775390625,0.0573272705078125,0.9730682373046875,0.2357635498046875
1701290237011596000,2.214595947265625,0.0584259033203125,0.96673583984375,0.242431640625
1701290237021672000,2.224671875,0.0622100830078125,0.966278076171875,0.2465362548828125
1701290237031746800,2.234746826171875,0.0638275146484375,0.9746551513671875,0.2442169189453125
1701290237041823000,2.244822998046875,0.056732177734375,0.9810333251953125,0.2360382080078125
1701290237051898000,2.254898193359375,0.0438079833984375,0.9785003662109375,0.2292633056640625
1701290237061974000,2.26497412109375,0.0330810546875,0.974273681640625,0.230255126953125
1701290237072049000,2.275048828125,0.033843994140625,0.9656982421875,0.2322540283203125
1701290237082125000,2.285125,0.041015625,0.9655609130859375,0.232421875
1701290237092200000,2.295199951171875,0.047637939453125,0.9677734375,0.237274169921875
1701290237102275800,2.30527587890625,0.0540618896484375,0.9679107666015625,0.239990234375
1701290237112351000,2.31535107421875,0.05548095703125,0.96771240234375,0.2399139404296875
1701290237122427000,2.325427001953125,0.0530853271484375,0.9624481201171875,0.2324371337890625
1701290237132501800,2.335501708984375,0.049774169921875,0.95556640625,0.2266998291015625
1701290237142578000,2.345577880859375,0.046966552734375,0.9573211669921875,0.2220458984375
1701290237152653800,2.35565380859375,0.043853759765625,0.9645538330078125,0.2213897705078125
1701290237162729000,2.36572900390625,0.0389251708984375,0.973297119140625,0.2191009521484375
1701290237172804900,2.375804931640625,0.040252685546875,0.9754791259765625,0.215545654296875
1701290237182880300,2.38588037109375,0.0469207763671875,0.974090576171875,0.2130126953125
1701290237192956200,2.3959560546875,0.0523529052734375,0.973785400390625,0.2089996337890625
1701290237203031300,2.40603125,0.0569915771484375,0.971527099609375,0.210479736328125
1701290237213107200,2.416107177734375,0.049285888671875,0.9653167724609375,0.213592529296875
1701290237223182000,2.42618212890625,0.0416717529296875,0.96014404296875,0.22161865234375
1701290237233258200,2.43625830078125,0.0467071533203125,0.961639404296875,0.2306671142578125
1701290237243333000,2.4463330078125,0.0635986328125,0.9774627685546875,0.24285888671875
1701290237253409000,2.456408935546875,0.0740509033203125,0.988250732421875,0.2501220703125
1701290237263484200,2.466484130859375,0.0737762451171875,0.978546142578125,0.2490234375
1701290237273560300,2.476560302734375,0.0650787353515625,0.9617919921875,0.242034912109375
1701290237283636000,2.486635986328125,0.05584716796875,0.9570465087890625,0.2346649169921875
1701290237293711000,2.496711181640625,0.0529937744140625,0.9644317626953125,0.22662353515625
1701290237303787300,2.506787353515625,0.05078125,0.9678955078125,0.216705322265625
1701290237313862100,2.516862060546875,0.045135498046875,0.9698486328125,0.2110595703125
1701290237323938000,2.52693798828125,0.0436859130859375,0.96917724609375,0.2118682861328125
1701290237334013200,2.53701318359375,0.0476226806640625,0.966644287109375,0.21661376953125
1701290237344089300,2.54708935546875,0.048675537109375,0.96453857421875,0.2222442626953125
1701290237354164200,2.557164306640625,0.04119873046875,0.95819091796875,0.2268524169921875
1701290237364240100,2.567240234375,0.0364532470703125,0.957275390625,0.2371063232421875
1701290237374315300,2.577315185546875,0.037445068359375,0.9732208251953125,0.25006103515625
1701290237384391400,2.587391357421875,0.0383758544921875,0.9912109375,0.267486572265625
1701290237394467000,2.597467041015625,0.0343475341796875,0.9953765869140625,0.281402587890625
1701290237404542200,2.607542236328125,0.0351104736328125,0.9773101806640625,0.2807464599609375
1701290237414618400,2.617618408203125,0.0438385009765625,0.96038818359375,0.2759552001953125
1701290237424693000,2.62769287109375,0.046478271484375,0.965179443359375,0.26715087890625
1701290237434769200,2.63776904296875,0.0444183349609375,0.9824371337890625,0.2569122314453125
1701290237444844300,2.64784423828125,0.031463623046875,0.99200439453125,0.2398834228515625
1701290237454920200,2.657920166015625,0.0129547119140625,0.994476318359375,0.2200469970703125
1701290237464995000,2.6679951171875,0.0063934326171875,0.9841766357421875,0.2039947509765625
1701290237475071200,2.6780712890625,0.0157012939453125,0.970916748046875,0.1993255615234375
1701290237485146400,2.688146484375,0.0331573486328125,0.964813232421875,0.1999664306640625
1701290237495222000,2.698221923828125,0.0477294921875,0.966949462890625,0.1944580078125
1701290237505297200,2.708297119140625,0.051605224609375,0.975677490234375,0.19024658203125
1701290237515373300,2.718373291015625,0.04949951171875,0.9835968017578125,0.1936187744140625
1701290237525448200,2.7284482421875,0.037841796875,0.9845123291015625,0.1987457275390625
1701290237535524000,2.738524169921875,0.02691650390625,0.9640960693359375,0.2086944580078125
1701290237545600300,2.748600341796875,0.0280303955078125,0.951995849609375,0.215087890625
1701290237555675400,2.75867529296875,0.0462188720703125,0.962677001953125,0.2155609130859375
1701290237565751300,2.768751220703125,0.05535888671875,0.969970703125,0.2185211181640625
1701290237575826200,2.778826171875,0.04833984375,0.9681396484375,0.227020263671875
1701290237585902300,2.78890234375,0.0390167236328125,0.9676361083984375,0.2346954345703125
1701290237595977200,2.798977294921875,0.038818359375,0.9707489013671875,0.23822021484375
1701290237606053000,2.80905322265625,0.041748046875,0.967376708984375,0.245086669921875
1701290237616128300,2.819128173828125,0.04644775390625,0.9646453857421875,0.2513427734375
1701290237626204200,2.8292041015625,0.0508575439453125,0.95843505859375,0.2601165771484375
1701290237636279000,2.839279052734375,0.0491790771484375,0.9501495361328125,0.26531982421875
1701290237646355200,2.849355224609375,0.0427703857421875,0.94732666015625,0.2617950439453125
1701290237656430300,2.859430419921875,0.035888671875,0.9534912109375,0.2505950927734375
1701290237666506200,2.86950634765625,0.028717041015625,0.9656219482421875,0.2406158447265625
1701290237676582100,2.87958203125,0.0211944580078125,0.9842529296875,0.241241455078125
1701290237686657300,2.8896572265625,0.0120849609375,0.9928741455078125,0.2431640625
1701290237696733200,2.899733154296875,0.0066070556640625,0.9835205078125,0.2470550537109375
1701290237706808000,2.90980810546875,0.012237548828125,0.9740142822265625,0.2504425048828125
1701290237716884200,2.91988427734375,0.027191162109375,0.9645843505859375,0.2459869384765625
1701290237726959000,2.929958984375,0.04345703125,0.9674072265625,0.2401885986328125
1701290237737035300,2.94003515625,0.0586395263671875,0.9771728515625,0.2242279052734375
1701290237747110100,2.950110107421875,0.0605010986328125,0.9868316650390625,0.2015228271484375
1701290237757186000,2.96018603515625,0.045989990234375,0.991180419921875,0.176055908203125
1701290237767261200,2.97026123046875,0.027008056640625,0.986541748046875,0.1663970947265625
1701290237777337300,2.98033740234375,0.0127105712890625,0.9813690185546875,0.175140380859375
1701290237787412200,2.990412109375,0.01617431640625,0.9761810302734375,0.1931610107421875
1701290237797488000,3.000488037109375,0.03558349609375,0.97601318359375,0.2131500244140625
1701290237807564300,3.010564208984375,0.05084228515625,0.9741668701171875,0.2227630615234375
1701290237817639200,3.02063916015625,0.0535888671875,0.971099853515625,0.2120361328125
1701290237827715000,3.030715087890625,0.047637939453125,0.9750518798828125,0.198822021484375
1701290237837790200,3.040790283203125,0.0398712158203125,0.9881744384765625,0.1916961669921875
1701290237847866400,3.050866455078125,0.03472900390625,0.996063232421875,0.192962646484375
1701290237857941200,3.060941162109375,0.0433502197265625,0.9865264892578125,0.1957550048828125
1701290237868017200,3.07101708984375,0.059844970703125,0.968902587890625,0.187835693359375
1701290237878092300,3.08109228515625,0.0728607177734375,0.961090087890625,0.176605224609375
1701290237888168200,3.091168212890625,0.076812744140625,0.9579315185546875,0.1683197021484375
1701290237898243000,3.1012431640625,0.071563720703125,0.9635467529296875,0.16351318359375
1701290237908319200,3.1113193359375,0.0600128173828125,0.966522216796875,0.16424560546875
1701290237918394000,3.12139404296875,0.0548248291015625,0.964935302734375,0.1744537353515625
1701290237928470000,3.131469970703125,0.0559234619140625,0.9635467529296875,0.1916656494140625
1701290237938545200,3.141545166015625,0.0572052001953125,0.971710205078125,0.205963134765625
1701290237948621300,3.151621337890625,0.0522003173828125,0.9830322265625,0.2100067138671875
1701290237958697000,3.161697021484375,0.0421295166015625,0.9876708984375,0.2092132568359375
1701290237968772000,3.171772216796875,0.0318756103515625,0.983184814453125,0.207977294921875
1701290237978848300,3.18184814453125,0.0332489013671875,0.9859466552734375,0.2095794677734375
1701290237988923400,3.19192333984375,0.03948974609375,0.984893798828125,0.2162322998046875
1701290237998999000,3.2019990234375,0.0435333251953125,0.9729156494140625,0.2250518798828125
1701290238009074200,3.21207421875,0.0522613525390625,0.95733642578125,0.2374267578125
1701290238019150300,3.222150390625,0.0633544921875,0.9488677978515625,0.2472381591796875
1701290238029225200,3.23222509765625,0.0730133056640625,0.951171875,0.251190185546875
1701290238039301000,3.242301025390625,0.0747222900390625,0.957855224609375,0.2471160888671875
1701290238049376300,3.252376220703125,0.065673828125,0.9661102294921875,0.2398681640625
1701290238059452400,3.262452392578125,0.05267333984375,0.97296142578125,0.2325286865234375
1701290238069527000,3.272527099609375,0.0460205078125,0.9763336181640625,0.232269287109375
1701290238079603200,3.282603271484375,0.0517578125,0.9807586669921875,0.2240142822265625
1701290238089679400,3.292679443359375,0.0612030029296875,0.97857666015625,0.2154083251953125
1701290238099754000,3.30275390625,0.067413330078125,0.97222900390625,0.20867919921875
1701290238109830100,3.312830078125,0.066436767578125,0.9654693603515625,0.2064208984375
1701290238119905300,3.3229052734375,0.0628662109375,0.9625091552734375,0.2062530517578125
1701290238129981200,3.332981201171875,0.064300537109375,0.9660797119140625,0.20672607421875
1701290238140056000,3.34305615234375,0.073211669921875,0.96258544921875,0.20855712890625
1701290238150132200,3.35313232421875,0.0837554931640625,0.960906982421875,0.207489013671875
1701290238160207400,3.363207275390625,0.0885772705078125,0.961181640625,0.2079010009765625
1701290238170283000,3.373282958984375,0.0882720947265625,0.970458984375,0.2069854736328125
1701290238180358100,3.383358154296875,0.0786895751953125,0.9774932861328125,0.201385498046875
1701290238190434000,3.39343408203125,0.06329345703125,0.98138427734375,0.195892333984375
1701290238200509000,3.403509033203125,0.045684814453125,0.9831390380859375,0.1923828125
1701290238210584800,3.413584716796875,0.0365447998046875,0.9832305908203125,0.197265625
1701290238220660000,3.423659912109375,0.0363311767578125,0.9842376708984375,0.2008514404296875
1701290238230736100,3.433736083984375,0.039215087890625,0.987274169921875,0.20257568359375
1701290238240812000,3.44381201171875,0.0435791015625,0.9847869873046875,0.20233154296875
1701290238250887000,3.453886962890625,0.0445404052734375,0.986785888671875,0.195556640625
1701290238260963000,3.463963134765625,0.041595458984375,0.9874114990234375,0.1864471435546875
1701290238271038000,3.474037841796875,0.0353240966796875,0.97857666015625,0.1844329833984375
1701290238281113900,3.48411376953125,0.0388946533203125,0.97113037109375,0.1878814697265625
1701290238291189000,3.49418896484375,0.056610107421875,0.9709320068359375,0.19696044921875
1701290238301265000,3.504264892578125,0.071319580078125,0.9759521484375,0.201141357421875
1701290238311339800,3.51433984375,0.0811004638671875,0.9754638671875,0.201385498046875
1701290238321416000,3.524416015625,0.0821533203125,0.97662353515625,0.1904449462890625
1701290238331491000,3.534490966796875,0.072265625,0.974884033203125,0.178924560546875
1701290238341567000,3.54456689453125,0.0599365234375,0.973175048828125,0.1733551025390625
1701290238351641900,3.554641845703125,0.0559234619140625,0.9754791259765625,0.170806884765625
1701290238361718000,3.564718017578125,0.0561370849609375,0.9829864501953125,0.1702117919921875
1701290238371794000,3.5747939453125,0.054901123046875,0.99188232421875,0.1715240478515625
1701290238381868800,3.584868896484375,0.055450439453125,0.99725341796875,0.177825927734375
1701290238391945000,3.594945068359375,0.056915283203125,0.9937896728515625,0.17767333984375
1701290238402020000,3.60502001953125,0.0641937255859375,0.985809326171875,0.1778106689453125
1701290238412096000,3.615095947265625,0.0674591064453125,0.977630615234375,0.17401123046875
1701290238422171000,3.6251708984375,0.0704803466796875,0.982666015625,0.1783599853515625
1701290238432247000,3.6352470703125,0.0714874267578125,0.9933624267578125,0.1826019287109375
1701290238442322000,3.645322021484375,0.062835693359375,1.00396728515625,0.190948486328125
1701290238452398000,3.655398193359375,0.046417236328125,1.0063934326171875,0.1960601806640625
1701290238462473000,3.665472900390625,0.0329437255859375,0.999053955078125,0.1977386474609375
1701290238472548900,3.675548828125,0.026031494140625,0.987884521484375,0.20062255859375
1701290238482624000,3.6856240234375,0.026031494140625,0.979644775390625,0.20562744140625
1701290238492700000,3.695699951171875,0.0336456298828125,0.9778900146484375,0.207672119140625
1701290238502775000,3.705775146484375,0.0396575927734375,0.9807281494140625,0.207061767578125
1701290238512851000,3.715850830078125,0.0381317138671875,0.977569580078125,0.2047119140625
1701290238522927000,3.725927001953125,0.0363006591796875,0.9727020263671875,0.1992645263671875
1701290238533002000,3.736001953125,0.0346527099609375,0.9752044677734375,0.1939697265625
1701290238543078000,3.746077880859375,0.033203125,0.98193359375,0.196075439453125
1701290238553153000,3.756153076171875,0.0319061279296875,0.977020263671875,0.2059326171875
1701290238563229000,3.76622900390625,0.0313568115234375,0.9705352783203125,0.2194976806640625
1701290238573304000,3.776303955078125,0.0310821533203125,0.9645233154296875,0.22857666015625
1701290238583380000,3.7863798828125,0.0355987548828125,0.965606689453125,0.233154296875
1701290238593454800,3.796454833984375,0.0364227294921875,0.972747802734375,0.237274169921875
1701290238603531000,3.806531005859375,0.031768798828125,0.9757537841796875,0.239532470703125
1701290238613606000,3.81660595703125,0.025421142578125,0.9706573486328125,0.245086669921875
1701290238623682000,3.82668212890625,0.020263671875,0.963226318359375,0.2493438720703125
1701290238633757000,3.8367568359375,0.015869140625,0.9697113037109375,0.251678466796875
1701290238643832800,3.846832763671875,0.011016845703125,0.9885711669921875,0.2564239501953125
1701290238653909000,3.856908935546875,-0.002838134765625,1.003875732421875,0.2591552734375
1701290238663984000,3.866984130859375,-0.032012939453125,0.9954986572265625,0.2693023681640625
1701290238674059800,3.877059814453125,-0.0579376220703125,0.9869232177734375,0.279266357421875
1701290238684135000,3.887135009765625,-0.068084716796875,0.98590087890625,0.2857666015625
1701290238694211000,3.897211181640625,-0.065887451171875,1.00103759765625,0.287872314453125
1701290238704286000,3.907285888671875,-0.0663604736328125,1.01275634765625,0.2815399169921875
1701290238714361900,3.91736181640625,-0.0863800048828125,1.000152587890625,0.263946533203125
1701290238724437000,3.92743701171875,-0.1223907470703125,0.9732818603515625,0.2496490478515625
1701290238734513200,3.93751318359375,-0.1588134765625,0.9506683349609375,0.24859619140625
1701290238744587800,3.947587890625,-0.1909942626953125,0.955047607421875,0.26397705078125
1701290238754664000,3.957663818359375,-0.2077789306640625,0.9748687744140625,0.2878875732421875
1701290238764739000,3.967739013671875,-0.2121734619140625,0.99713134765625,0.317352294921875
1701290238774814700,3.977814697265625,-0.2133636474609375,1.0095062255859375,0.3449859619140625
1701290238784889900,3.987889892578125,-0.210113525390625,1.008880615234375,0.358184814453125
1701290238794966000,3.997966064453125,-0.1989288330078125,1.0004119873046875,0.3752288818359375
1701290238805042000,4.0080419921875,-0.1884765625,0.9912567138671875,0.40325927734375
1701290238815116800,4.01811669921875,-0.1721954345703125,0.9837188720703125,0.446533203125
1701290238825193000,4.02819287109375,-0.125946044921875,0.9615478515625,0.4704437255859375
1701290238835268000,4.03826806640625,-0.0655517578125,0.9420318603515625,0.4637451171875
1701290238845343700,4.04834375,-0.01971435546875,0.9430999755859375,0.4287567138671875
1701290238855419000,4.0584189453125,-0.0296478271484375,0.9566650390625,0.38818359375
1701290238865495000,4.0684951171875,-0.056060791015625,0.9662017822265625,0.3233184814453125
1701290238875570200,4.078570068359375,-0.0601959228515625,0.986541748046875,0.247802734375
1701290238885645800,4.088645751953125,-0.051849365234375,1.0245208740234375,0.1917877197265625
1701290238895721000,4.098720947265625,-0.005523681640625,1.041107177734375,0.1490020751953125
1701290238905797000,4.108797119140625,0.0418548583984375,1.01702880859375,0.13555908203125
1701290238915871700,4.118871826171875,0.053375244140625,0.9854278564453125,0.1661224365234375
1701290238925948000,4.128947998046875,0.036529541015625,0.965179443359375,0.21917724609375
1701290238936024000,4.139024169921875,0.004730224609375,0.95831298828125,0.2552642822265625
1701290238946099000,4.149098876953125,-0.037200927734375,0.95745849609375,0.2489471435546875
1701290238956174800,4.1591748046875,-0.0815887451171875,0.9495849609375,0.2309722900390625
1701290238966250000,4.16925,-0.1086273193359375,0.9360504150390625,0.2135009765625
1701290238976326000,4.179325927734375,-0.13519287109375,0.9279022216796875,0.215972900390625
1701290238986400800,4.18940087890625,-0.150177001953125,0.9166259765625,0.226806640625
1701290238996477000,4.199476806640625,-0.153656005859375,0.9004974365234375,0.236083984375
1701290239006552000,4.209552001953125,-0.1501312255859375,0.8935699462890625,0.2321624755859375
1701290239016628000,4.2196279296875,-0.1526336669921875,0.895263671875,0.222900390625
1701290239026702800,4.229702880859375,-0.1618499755859375,0.906463623046875,0.213287353515625
1701290239036779000,4.239779052734375,-0.1708831787109375,0.9176788330078125,0.2019500732421875
1701290239046854100,4.249854248046875,-0.1801605224609375,0.9306488037109375,0.184173583984375
1701290239056930000,4.259929931640625,-0.1787567138671875,0.939605712890625,0.1679534912109375
1701290239067006000,4.270005859375,-0.182037353515625,0.93798828125,0.1647796630859375
1701290239077081000,4.2800810546875,-0.1925048828125,0.9328765869140625,0.164215087890625
1701290239087157000,4.290156982421875,-0.1948394775390625,0.92889404296875,0.174652099609375
1701290239097232000,4.30023193359375,-0.193450927734375,0.9258880615234375,0.1977081298828125
1701290239107308000,4.31030810546875,-0.202911376953125,0.9202423095703125,0.2288970947265625
1701290239117383000,4.3203828125,-0.21429443359375,0.9225311279296875,0.2582550048828125
1701290239127459000,4.330458984375,-0.219451904296875,0.9246826171875,0.2845458984375
1701290239137534000,4.340533935546875,-0.22125244140625,0.9200592041015625,0.31158447265625
1701290239147609900,4.35060986328125,-0.221954345703125,0.9145965576171875,0.3284759521484375
1701290239157685000,4.36068505859375,-0.2270050048828125,0.9095916748046875,0.3273468017578125
1701290239167761000,4.370760986328125,-0.231597900390625,0.8990478515625,0.3045501708984375
1701290239177836000,4.3808359375,-0.233245849609375,0.8752593994140625,0.28704833984375
1701290239187911700,4.39091162109375,-0.2381744384765625,0.8501129150390625,0.276947021484375
1701290239197986600,4.400986572265625,-0.2390289306640625,0.843719482421875,0.291046142578125
1701290239208062700,4.411062744140625,-0.230133056640625,0.852996826171875,0.318939208984375
1701290239218138600,4.421138671875,-0.225128173828125,0.8639984130859375,0.3479156494140625
1701290239228213800,4.4312138671875,-0.2122344970703125,0.85894775390625,0.3736419677734375
1701290239238289700,4.44128955078125,-0.1916961669921875,0.843414306640625,0.394073486328125
1701290239248364800,4.45136474609375,-0.1668243408203125,0.8328399658203125,0.4037017822265625
1701290239258440700,4.461440673828125,-0.157989501953125,0.831298828125,0.41229248046875
1701290239268515600,4.471515625,-0.1563873291015625,0.8376617431640625,0.423553466796875
1701290239278591700,4.481591796875,-0.16339111328125,0.8441009521484375,0.432830810546875
1701290239288666600,4.49166650390625,-0.178131103515625,0.85797119140625,0.43170166015625
1701290239298742800,4.50174267578125,-0.1918182373046875,0.8697509765625,0.41180419921875
1701290239308817700,4.511817626953125,-0.2008819580078125,0.87823486328125,0.3878021240234375
1701290239318893600,4.5218935546875,-0.2127532958984375,0.884796142578125,0.3702545166015625
1701290239328968700,4.53196875,-0.2240142822265625,0.8932037353515625,0.3591766357421875
1701290239339044900,4.542044921875,-0.2283782958984375,0.8992767333984375,0.3554229736328125
1701290239349120500,4.55212060546875,-0.2339019775390625,0.8928985595703125,0.3619232177734375
1701290239359195600,4.562195556640625,-0.22918701171875,0.877105712890625,0.367095947265625
1701290239369271800,4.572271728515625,-0.2119903564453125,0.8641357421875,0.3528289794921875
1701290239379346700,4.5823466796875,-0.191314697265625,0.88031005859375,0.2979888916015625
1701290239389422600,4.592422607421875,-0.1607818603515625,0.9691925048828125,0.2228851318359375
1701290239399497700,4.602497802734375,-0.12152099609375,1.0665740966796875,0.1715087890625
1701290239409574000,4.612573974609375,-0.117279052734375,1.08831787109375,0.1328582763671875
1701290239419648800,4.622648681640625,-0.156158447265625,1.021392822265625,0.098358154296875
1701290239429724700,4.632724609375,-0.183074951171875,0.9154205322265625,0.0735626220703125
1701290239439799800,4.6427998046875,-0.1758270263671875,0.8373565673828125,0.0762939453125
1701290239449875700,4.652875732421875,-0.1523590087890625,0.8287200927734375,0.1228485107421875
1701290239459950600,4.66295068359375,-0.135467529296875,0.9061126708984375,0.212890625
1701290239470026800,4.67302685546875,-0.1483154296875,1.05926513671875,0.329620361328125
1701290239480102700,4.6831025390625,-0.2063446044921875,1.2349700927734375,0.4257659912109375
1701290239490177500,4.693177490234375,-0.2641143798828125,1.3458709716796875,0.4700469970703125
1701290239500253700,4.703253662109375,-0.29730224609375,1.3178863525390625,0.463287353515625
1701290239510328800,4.713328857421875,-0.310546875,1.1790771484375,0.43609619140625
1701290239520404500,4.723404541015625,-0.278533935546875,1.0507659912109375,0.397552490234375
1701290239530479600,4.733479736328125,-0.21636962890625,0.95556640625,0.35357666015625
1701290239540555800,4.7435556640625,-0.13177490234375,0.8687744140625,0.31170654296875
1701290239550631000,4.753630859375,-0.03399658203125,0.82757568359375,0.280242919921875
1701290239560706600,4.76370654296875,0.0442047119140625,0.8468017578125,0.2599945068359375
1701290239570781700,4.77378173828125,0.1149749755859375,0.8878631591796875,0.2340850830078125
1701290239580857900,4.78385791015625,0.1657562255859375,0.9130401611328125,0.214141845703125
1701290239590932500,4.793932373046875,0.183868408203125,0.91253662109375,0.20477294921875
1701290239601008600,4.804008544921875,0.1724853515625,0.9061431884765625,0.2149658203125
1701290239611084800,4.814084716796875,0.1227874755859375,0.9079742431640625,0.2487640380859375
1701290239621159700,4.82415966796875,0.047149658203125,0.912506103515625,0.3036651611328125
1701290239631235600,4.834235595703125,-0.0235748291015625,0.918609619140625,0.36676025390625
1701290239641310700,4.844310791015625,-0.0472869873046875,0.9335784912109375,0.41033935546875
1701290239651386600,4.85438671875,-0.0230255126953125,0.9562225341796875,0.4275360107421875
1701290239661461500,4.86446142578125,0.0057830810546875,0.957550048828125,0.40863037109375
1701290239671537700,4.87453759765625,0.027435302734375,0.940216064453125,0.3563690185546875
1701290239681612800,4.88461279296875,0.060943603515625,0.9336700439453125,0.2863006591796875
1701290239691688700,4.894688720703125,0.0661773681640625,0.9462738037109375,0.2099151611328125
1701290239701763600,4.904763671875,0.0520782470703125,0.9642333984375,0.148681640625
1701290239711839700,4.91483984375,0.0442657470703125,0.9833221435546875,0.115692138671875
1701290239721915000,4.924914794921875,0.04791259765625,1.0008392333984375,0.112548828125
1701290239731990800,4.93499072265625,0.0604095458984375,1.0024261474609375,0.136962890625
1701290239742065700,4.945065673828125,0.0785064697265625,0.9989471435546875,0.178497314453125
1701290239752141800,4.955141845703125,0.09661865234375,1.0011749267578125,0.224853515625
1701290239762217700,4.9652177734375,0.10955810546875,1.0059814453125,0.271820068359375
1701290239772292600,4.975292724609375,0.1068115234375,0.99188232421875,0.3116912841796875
1701290239782368800,4.98536865234375,0.1089324951171875,0.9603729248046875,0.3444366455078125
1701290239792443600,4.995443603515625,0.094207763671875,0.9353179931640625,0.3662109375
1701290239802519800,5.005519775390625,0.0844268798828125,0.9342193603515625,0.3745574951171875
1701290239812594700,5.0155947265625,0.1031494140625,0.94708251953125,0.369415283203125
1701290239822670600,5.025670654296875,0.12200927734375,0.9628143310546875,0.345489501953125
1701290239832745700,5.035745849609375,0.1358184814453125,0.95941162109375,0.312896728515625
1701290239842821600,5.045821533203125,0.1280975341796875,0.9449615478515625,0.284820556640625
1701290239852896800,5.055896728515625,0.103363037109375,0.9374237060546875,0.2678375244140625
1701290239862972700,5.06597265625,0.0834503173828125,0.9372406005859375,0.2602691650390625
1701290239873047600,5.076047607421875,0.0800628662109375,0.9329986572265625,0.261199951171875
1701290239883123700,5.086123779296875,0.090728759765625,0.926025390625,0.2623443603515625
1701290239893199600,5.09619970703125,0.115814208984375,0.9131927490234375,0.26422119140625
1701290239903274800,5.106274658203125,0.1335601806640625,0.8985137939453125,0.269744873046875
1701290239913350700,5.1163505859375,0.1412353515625,0.89056396484375,0.27520751953125
1701290239923425800,5.12642578125,0.142364501953125,0.9033355712890625,0.2804718017578125
1701290239933501700,5.136501708984375,0.1326141357421875,0.9298248291015625,0.2790069580078125
1701290239943576800,5.146576904296875,0.12677001953125,0.94757080078125,0.2692413330078125
1701290239953652700,5.15665283203125,0.1304779052734375,0.9494171142578125,0.259063720703125
1701290239963727600,5.1667275390625,0.142425537109375,0.950439453125,0.254608154296875
1701290239973803800,5.1768037109375,0.1530609130859375,0.9518585205078125,0.2493896484375
1701290239983878700,5.186878662109375,0.1587982177734375,0.9507293701171875,0.2386016845703125
1701290239993954600,5.19695458984375,0.1540679931640625,0.9527130126953125,0.22564697265625
1701290240004029700,5.20702978515625,0.13720703125,0.95928955078125,0.2113494873046875
1701290240014105900,5.21710595703125,0.129669189453125,0.9632568359375,0.2073822021484375
1701290240024181500,5.227181396484375,0.1247711181640625,0.957427978515625,0.20611572265625
1701290240034256600,5.237256591796875,0.128509521484375,0.9554595947265625,0.206207275390625
1701290240044332800,5.247332763671875,0.1368255615234375,0.9657135009765625,0.2085113525390625
1701290240054407700,5.25740771484375,0.1376495361328125,0.98297119140625,0.2105865478515625
1701290240064483600,5.267483642578125,0.146270751953125,1.00238037109375,0.2283172607421875
1701290240074558700,5.277558837890625,0.160369873046875,0.99786376953125,0.242431640625
1701290240084635000,5.287634765625,0.1669158935546875,0.9688262939453125,0.2543182373046875
1701290240094709800,5.297709716796875,0.1648712158203125,0.9500885009765625,0.271484375
1701290240104785700,5.30778564453125,0.155792236328125,0.941986083984375,0.28863525390625
1701290240114860800,5.31786083984375,0.1505279541015625,0.94354248046875,0.2991790771484375
1701290240124936700,5.327936767578125,0.1509246826171875,0.945465087890625,0.296173095703125
1701290240135011600,5.338011474609375,0.158050537109375,0.93988037109375,0.29132080078125
1701290240145087700,5.348087646484375,0.1604461669921875,0.933746337890625,0.290313720703125
1701290240155163600,5.35816357421875,0.15179443359375,0.9368896484375,0.293975830078125
1701290240165238500,5.368238525390625,0.1441192626953125,0.944580078125,0.3050079345703125
1701290240175314700,5.378314697265625,0.142242431640625,0.9482269287109375,0.308258056640625
1701290240185390300,5.388390380859375,0.1508331298828125,0.9464111328125,0.30548095703125
1701290240195466200,5.39846630859375,0.158355712890625,0.94354248046875,0.2924041748046875
1701290240205541000,5.408541015625,0.1632843017578125,0.9498443603515625,0.283721923828125
1701290240215617300,5.4186171875,0.1514129638671875,0.967681884765625,0.284271240234375
1701290240225692200,5.428692138671875,0.1248931884765625,0.97698974609375,0.27569580078125
1701290240235768000,5.43876806640625,0.093475341796875,0.968994140625,0.25823974609375
1701290240245843200,5.44884326171875,0.08349609375,0.958953857421875,0.2557830810546875
1701290240255919000,5.458919189453125,0.1038665771484375,0.9562835693359375,0.2685699462890625
1701290240265994200,5.468994140625,0.1356353759765625,0.955230712890625,0.282012939453125
1701290240276070100,5.479070068359375,0.158447265625,0.9498443603515625,0.2789306640625
1701290240286146000,5.48914599609375,0.1636810302734375,0.935943603515625,0.2680511474609375
1701290240296221200,5.49922119140625,0.160980224609375,0.92852783203125,0.272369384765625
1701290240306297300,5.50929736328125,0.158935546875,0.92822265625,0.2860107421875
1701290240316372200,5.519372314453125,0.17041015625,0.9279632568359375,0.2927093505859375
1701290240326448000,5.5294482421875,0.1831207275390625,0.9183349609375,0.2890777587890625
1701290240336523300,5.539523193359375,0.1847381591796875,0.904266357421875,0.2819061279296875
1701290240346599200,5.54959912109375,0.1788177490234375,0.897247314453125,0.2812042236328125
1701290240356674300,5.55967431640625,0.184295654296875,0.899078369140625,0.282867431640625
1701290240366750200,5.569750244140625,0.2087860107421875,0.907958984375,0.272003173828125
1701290240376825000,5.5798251953125,0.236724853515625,0.9228973388671875,0.2474365234375
1701290240386901200,5.5899013671875,0.2519989013671875,0.937164306640625,0.2222747802734375
1701290240396976000,5.59997607421875,0.245452880859375,0.9375152587890625,0.204986572265625
1701290240407052300,5.61005224609375,0.226226806640625,0.9293975830078125,0.2022552490234375
1701290240417128200,5.620128173828125,0.214447021484375,0.931304931640625,0.2158660888671875
1701290240427203000,5.630203125,0.214447021484375,0.9461212158203125,0.2248687744140625
1701290240437279200,5.640279296875,0.2103424072265625,0.9517669677734375,0.223388671875
1701290240447354000,5.65035400390625,0.198272705078125,0.961212158203125,0.2400665283203125
1701290240457430000,5.660429931640625,0.1937408447265625,0.9885711669921875,0.2728118896484375
1701290240467505200,5.670505126953125,0.1965179443359375,1.0134735107421875,0.2978515625
1701290240477581300,5.680581298828125,0.1990814208984375,1.0314178466796875,0.3188629150390625
1701290240487656200,5.69065625,0.1853485107421875,1.042816162109375,0.3430023193359375
1701290240497732000,5.700732177734375,0.1536865234375,1.0482635498046875,0.374420166015625
1701290240507807200,5.71080712890625,0.113189697265625,1.0452880859375,0.409881591796875
1701290240517883400,5.72088330078125,0.073455810546875,1.0381622314453125,0.44189453125
1701290240527958300,5.730958251953125,0.048858642578125,1.0397796630859375,0.4579010009765625
1701290240538034200,5.7410341796875,0.0377655029296875,1.0629119873046875,0.4562225341796875
1701290240548110300,5.7511103515625,0.029205322265625,1.0951080322265625,0.4396209716796875
1701290240558185200,5.761185302734375,0.0082550048828125,1.1086273193359375,0.415863037109375
1701290240568261000,5.77126123046875,-0.0175018310546875,1.1105804443359375,0.3976287841796875
1701290240578336300,5.781336181640625,-0.040374755859375,1.111236572265625,0.3885040283203125
1701290240588412200,5.791412109375,-0.056854248046875,1.108978271484375,0.389373779296875
1701290240598487000,5.801487060546875,-0.0671539306640625,1.098907470703125,0.395751953125
1701290240608563200,5.811563232421875,-0.078216552734375,1.0777740478515625,0.3976287841796875
1701290240618638300,5.821638427734375,-0.094940185546875,1.0481719970703125,0.388214111328125
1701290240628714000,5.8317138671875,-0.106536865234375,1.02276611328125,0.3605499267578125
1701290240638789000,5.8417890625,-0.110809326171875,1.00408935546875,0.31146240234375
1701290240648865300,5.851865234375,-0.0988311767578125,0.9868621826171875,0.264617919921875
1701290240658940400,5.8619404296875,-0.0780029296875,0.974456787109375,0.2394866943359375
1701290240669016000,5.87201611328125,-0.0629425048828125,0.9741363525390625,0.2390899658203125
1701290240679092200,5.88209228515625,-0.0633087158203125,0.98345947265625,0.2458038330078125
1701290240689167400,5.89216748046875,-0.038299560546875,0.9842376708984375,0.24273681640625
1701290240699243300,5.9022431640625,0.0338287353515625,0.979736328125,0.2313690185546875
1701290240709318100,5.912318115234375,0.135650634765625,0.9727630615234375,0.2243804931640625
1701290240719394300,5.922394287109375,0.2070770263671875,0.9752655029296875,0.233367919921875
1701290240729469200,5.93246923828125,0.2269744873046875,0.9687347412109375,0.23699951171875
1701290240739545000,5.942545166015625,0.218414306640625,0.9781036376953125,0.235565185546875
1701290240749620200,5.9526201171875,0.218658447265625,0.9955902099609375,0.2337493896484375
1701290240759696100,5.962696044921875,0.2219390869140625,1.0033416748046875,0.2230682373046875
1701290240769771000,5.97277099609375,0.2040252685546875,1.0014801025390625,0.2213897705078125
1701290240779847200,5.98284716796875,0.1609649658203125,0.9959716796875,0.2119293212890625
1701290240789922300,5.99292236328125,0.1085662841796875,0.9933319091796875,0.2134246826171875
1701290240799998200,6.002998291015625,0.051300048828125,1.0137786865234375,0.2349395751953125
1701290240810074000,6.01307421875,-0.0054931640625,1.035003662109375,0.23687744140625
1701290240820149200,6.023149169921875,-0.019989013671875,1.0283355712890625,0.2213592529296875
1701290240830225200,6.03322509765625,-0.0184326171875,0.98834228515625,0.196746826171875
1701290240840300000,6.043300048828125,-0.01495361328125,0.945281982421875,0.1762237548828125
1701290240850376200,6.053376220703125,-0.0032501220703125,0.9117279052734375,0.176055908203125
1701290240860451300,6.063451416015625,0.0045318603515625,0.89117431640625,0.1798248291015625
1701290240870527200,6.07352734375,0.0065460205078125,0.8890380859375,0.1855926513671875
1701290240880602000,6.08360205078125,0.0078125,0.8935089111328125,0.1958465576171875
1701290240890678300,6.09367822265625,0.0093994140625,0.900543212890625,0.2074127197265625
1701290240900753200,6.103753173828125,0.00830078125,0.907470703125,0.2120513916015625
1701290240910829300,6.113829345703125,0.0077667236328125,0.9086151123046875,0.2120208740234375
1701290240920904200,6.123904296875,0.003448486328125,0.910552978515625,0.2104644775390625
1701290240930980000,6.13397998046875,-0.0046539306640625,0.91778564453125,0.2045135498046875
1701290240941056300,6.14405615234375,-0.021209716796875,0.926605224609375,0.192596435546875
1701290240951131100,6.154131103515625,-0.0473175048828125,0.9359588623046875,0.1781005859375
1701290240961207000,6.16420703125,-0.06781005859375,0.942413330078125,0.173248291015625
1701290240971282200,6.1742822265625,-0.0835723876953125,0.9415283203125,0.17144775390625
1701290240981358300,6.1843583984375,-0.1030426025390625,0.936248779296875,0.173614501953125
1701290240991433200,6.19443310546875,-0.11669921875,0.9360809326171875,0.1819000244140625
1701290241001509000,6.204509033203125,-0.1222686767578125,0.9409332275390625,0.2033233642578125
1701290241011584300,6.214584228515625,-0.1268310546875,0.942138671875,0.2245025634765625
1701290241021660200,6.22466015625,-0.129150390625,0.94415283203125,0.2458953857421875
1701290241031735300,6.2347353515625,-0.1305389404296875,0.944122314453125,0.2614898681640625
1701290241041811200,6.244811279296875,-0.1317138671875,0.9427490234375,0.26904296875
1701290241051886000,6.254885986328125,-0.1349639892578125,0.942901611328125,0.2790374755859375
1701290241061962200,6.264962158203125,-0.1391754150390625,0.9460296630859375,0.28814697265625
1701290241072038100,6.2750380859375,-0.145599365234375,0.94830322265625,0.3028106689453125
1701290241082113300,6.28511328125,-0.1509246826171875,0.9438323974609375,0.3151702880859375
1701290241092189200,6.295189208984375,-0.1518402099609375,0.9347991943359375,0.3195648193359375
1701290241102264000,6.30526416015625,-0.1474151611328125,0.924835205078125,0.320556640625
1701290241112340200,6.31534033203125,-0.1433258056640625,0.9124755859375,0.319976806640625
1701290241122415400,6.325415283203125,-0.139617919921875,0.8998565673828125,0.316314697265625
1701290241132491000,6.335490966796875,-0.132965087890625,0.890899658203125,0.3201751708984375
1701290241142566100,6.345566162109375,-0.135101318359375,0.8838653564453125,0.3240814208984375
1701290241152642300,6.355642333984375,-0.1403961181640625,0.88531494140625,0.3257293701171875
1701290241162717200,6.36571728515625,-0.1449737548828125,0.892974853515625,0.329620361328125
1701290241172793000,6.37579296875,-0.1505126953125,0.8997650146484375,0.331268310546875
1701290241182868200,6.3858681640625,-0.1551055908203125,0.898193359375,0.3320770263671875
1701290241192943400,6.395943359375,-0.1607513427734375,0.8941802978515625,0.3280029296875
1701290241203019300,6.406019287109375,-0.15911865234375,0.890045166015625,0.322113037109375
1701290241213094100,6.41609423828125,-0.1586151123046875,0.8928680419921875,0.316436767578125
1701290241223170300,6.42617041015625,-0.1644287109375,0.9002532958984375,0.3232574462890625
1701290241233245200,6.4362451171875,-0.166046142578125,0.906524658203125,0.3404541015625
1701290241243321000,6.446321044921875,-0.1695404052734375,0.904388427734375,0.3580322265625
1701290241253396200,6.456396240234375,-0.1869354248046875,0.899566650390625,0.3727569580078125
1701290241263472400,6.466472412109375,-0.2115325927734375,0.897552490234375,0.387176513671875
1701290241273547300,6.47654736328125,-0.211273193359375,0.8991851806640625,0.395172119140625
1701290241283623200,6.486623046875,-0.1812591552734375,0.9010009765625,0.3886871337890625
1701290241293698300,6.4966982421875,-0.1667327880859375,0.909210205078125,0.3708953857421875
1701290241303774500,6.5067744140625,-0.165985107421875,0.9199066162109375,0.35009765625
1701290241313849000,6.51684912109375,-0.1659393310546875,0.91650390625,0.3261871337890625
1701290241323925200,6.52692529296875,-0.17120361328125,0.903900146484375,0.3022308349609375
1701290241334001400,6.53700146484375,-0.1709442138671875,0.894744873046875,0.277984619140625
1701290241344076000,6.547075927734375,-0.1653900146484375,0.8936309814453125,0.251922607421875
1701290241354152200,6.557152099609375,-0.1591644287109375,0.9007568359375,0.2290496826171875
1701290241364227300,6.567227294921875,-0.1547698974609375,0.9074554443359375,0.223114013671875
1701290241374303200,6.57730322265625,-0.1475372314453125,0.9005126953125,0.2349395751953125
1701290241384378000,6.587378173828125,-0.12896728515625,0.8879852294921875,0.256317138671875
1701290241394454300,6.597454345703125,-0.1197967529296875,0.879180908203125,0.2855377197265625
1701290241404529400,6.607529296875,-0.10992431640625,0.872833251953125,0.3167724609375
1701290241414605000,6.61760498046875,-0.1008758544921875,0.8655548095703125,0.33660888671875
1701290241424680200,6.62768017578125,-0.0854644775390625,0.87200927734375,0.337249755859375
1701290241434756400,6.63775634765625,-0.0699005126953125,0.9210968017578125,0.3162078857421875
1701290241444831200,6.647831298828125,-0.068878173828125,0.98193359375,0.28680419921875
1701290241454907100,6.6579072265625,-0.098907470703125,1.0270538330078125,0.256927490234375
1701290241464983300,6.6679833984375,-0.159454345703125,1.0590667724609375,0.239837646484375
1701290241475058400,6.678058349609375,-0.218902587890625,1.070709228515625,0.2425537109375
1701290241485134000,6.688134033203125,-0.254119873046875,1.0491485595703125,0.272979736328125
1701290241495209200,6.698209228515625,-0.2515716552734375,1.0212860107421875,0.313323974609375
1701290241505285400,6.708285400390625,-0.2309112548828125,1.00762939453125,0.3535308837890625
1701290241515360300,6.7183603515625,-0.2028656005859375,1.016265869140625,0.3918914794921875
1701290241525436200,6.728436279296875,-0.17742919921875,1.0290679931640625,0.4091949462890625
1701290241535511300,6.73851123046875,-0.1630706787109375,1.0213623046875,0.398681640625
1701290241545587200,6.748587158203125,-0.159027099609375,1.0026092529296875,0.34979248046875
1701290241555662000,6.758662109375,-0.170013427734375,1.006011962890625,0.2742462158203125
1701290241565738200,6.76873828125,-0.1892852783203125,1.031280517578125,0.20330810546875
1701290241575814100,6.778814208984375,-0.2188568115234375,1.033935546875,0.1546630859375
1701290241585889300,6.78888916015625,-0.243682861328125,0.977569580078125,0.149658203125
1701290241595965200,6.798965087890625,-0.225738525390625,0.8825225830078125,0.1932220458984375
1701290241606040300,6.809040283203125,-0.18511962890625,0.816375732421875,0.2444000244140625
1701290241616116200,6.8191162109375,-0.13177490234375,0.822235107421875,0.287750244140625
1701290241626191000,6.829191162109375,-0.07421875,0.87139892578125,0.3138885498046875
1701290241636267300,6.839267333984375,-0.017547607421875,0.918914794921875,0.322052001953125
1701290241646342400,6.84934228515625,0.01678466796875,0.9618988037109375,0.3231658935546875
1701290241656418300,6.859418212890625,0.02691650390625,0.997894287109375,0.31024169921875
1701290241666493200,6.8694931640625,0.025482177734375,1.01812744140625,0.293853759765625
1701290241676569300,6.8795693359375,0.0207977294921875,1.0103759765625,0.296051025390625
1701290241686644200,6.889644287109375,0.0212860107421875,0.9881134033203125,0.3135223388671875
1701290241696720100,6.89972021484375,0.03546142578125,0.95819091796875,0.3350372314453125
1701290241706796300,6.90979638671875,0.0671539306640625,0.9200439453125,0.3403167724609375
1701290241716871200,6.91987109375,0.0818023681640625,0.8885498046875,0.333984375
1701290241726947300,6.929947265625,0.0579071044921875,0.8807830810546875,0.317626953125
1701290241737022200,6.940022216796875,0.026763916015625,0.8951568603515625,0.2906036376953125
1701290241747098000,6.95009814453125,0.0040283203125,0.9191741943359375,0.2412261962890625
1701290241757173200,6.96017333984375,-0.0220947265625,0.942138671875,0.1858367919921875
1701290241767249400,6.97024951171875,-0.039886474609375,0.9488067626953125,0.1439208984375
1701290241777324300,6.98032421875,-0.0315704345703125,0.94036865234375,0.1415557861328125
1701290241787400200,6.990400146484375,-0.0126495361328125,0.9349822998046875,0.171875
1701290241797475300,7.000475341796875,0.0157623291015625,0.9366607666015625,0.2211456298828125
1701290241807551200,7.01055126953125,0.0433349609375,0.9412841796875,0.2608795166015625
1701290241817626000,7.020626220703125,0.0584716796875,0.9492950439453125,0.291839599609375
1701290241827702300,7.030702392578125,0.0692596435546875,0.960479736328125,0.31927490234375
1701290241837778400,7.0407783203125,0.0733642578125,0.976287841796875,0.343902587890625
1701290241847853000,7.05085302734375,0.068359375,0.986053466796875,0.367828369140625
1701290241857929200,7.06092919921875,0.0690155029296875,0.9779510498046875,0.3727874755859375
1701290241868004400,7.07100439453125,0.0841522216796875,0.947540283203125,0.3591766357421875
1701290241878080300,7.081080322265625,0.110687255859375,0.916015625,0.335968017578125
1701290241888155100,7.091155029296875,0.1181640625,0.9103240966796875,0.309600830078125
1701290241898231300,7.101231201171875,0.1217193603515625,0.93231201171875,0.2826690673828125
1701290241908306200,7.11130615234375,0.12542724609375,0.962921142578125,0.26177978515625
1701290241918382000,7.121382080078125,0.1314239501953125,0.9822998046875,0.248382568359375
1701290241928457200,7.131457275390625,0.1364288330078125,0.9896240234375,0.2349700927734375
1701290241938533400,7.141533447265625,0.1418609619140625,0.9898681640625,0.223907470703125
1701290241948608300,7.151608154296875,0.1497039794921875,0.985107421875,0.218414306640625
1701290241958684200,7.16168408203125,0.154388427734375,0.975494384765625,0.217132568359375
1701290241968760300,7.17176025390625,0.163726806640625,0.971099853515625,0.222137451171875
1701290241978835500,7.18183544921875,0.169403076171875,0.9764251708984375,0.228546142578125
1701290241988911000,7.1919111328125,0.158599853515625,0.9706268310546875,0.2191009521484375
1701290241998986200,7.201986328125,0.1344451904296875,0.9485626220703125,0.2027435302734375
1701290242009062400,7.2120625,0.1259002685546875,0.9312744140625,0.1921234130859375
1701290242019137000,7.222136962890625,0.134307861328125,0.9423675537109375,0.1962890625
1701290242029213200,7.232213134765625,0.144927978515625,0.9612579345703125,0.2176666259765625
1701290242039288300,7.242288330078125,0.1556549072265625,0.963348388671875,0.231964111328125
1701290242049364200,7.2523642578125,0.1544952392578125,0.953033447265625,0.239837646484375
1701290242059439000,7.262439208984375,0.147003173828125,0.93572998046875,0.2412261962890625
1701290242069515300,7.272515380859375,0.130126953125,0.9258880615234375,0.24395751953125
1701290242079590400,7.28259033203125,0.111053466796875,0.9408721923828125,0.250091552734375
1701290242089666000,7.292666015625,0.0931396484375,0.9620513916015625,0.2495574951171875
1701290242099742200,7.3027421875,0.0806427001953125,0.9689788818359375,0.2412567138671875
1701290242109817300,7.3128173828125,0.0808563232421875,0.967681884765625,0.232177734375
1701290242119893200,7.322893310546875,0.0880279541015625,0.9720306396484375,0.2345428466796875
1701290242129968000,7.332968017578125,0.101409912109375,0.9765472412109375,0.2424468994140625
1701290242140044300,7.343044189453125,0.1175384521484375,0.964813232421875,0.253326416015625
1701290242150119400,7.353119384765625,0.1346893310546875,0.9476165771484375,0.2632293701171875
1701290242160195300,7.3631953125,0.153411865234375,0.93780517578125,0.266998291015625
1701290242170270200,7.373270263671875,0.1741943359375,0.9376220703125,0.261199951171875
1701290242180346400,7.383346435546875,0.194091796875,0.95062255859375,0.2458343505859375
1701290242190422300,7.39342236328125,0.1972198486328125,0.963287353515625,0.2303466796875
1701290242200498400,7.40349853515625,0.1832733154296875,0.9698028564453125,0.214141845703125
1701290242210574300,7.41357421875,0.1609649658203125,0.9697723388671875,0.2108001708984375
1701290242220649200,7.423649169921875,0.1441802978515625,0.962158203125,0.2259979248046875
1701290242230725400,7.433725341796875,0.1417083740234375,0.9471893310546875,0.2547607421875
1701290242240800300,7.44380029296875,0.1544036865234375,0.9344482421875,0.2806243896484375
1701290242250876400,7.45387646484375,0.171417236328125,0.940582275390625,0.295013427734375
1701290242260951300,7.463951416015625,0.183563232421875,0.9572906494140625,0.289886474609375
1701290242271027200,7.474027099609375,0.1877899169921875,0.9629669189453125,0.2683258056640625
1701290242281102300,7.484102294921875,0.1879730224609375,0.9617462158203125,0.246826171875
1701290242291178200,7.49417822265625,0.1869049072265625,0.9597320556640625,0.236572265625
1701290242301253400,7.50425341796875,0.1819915771484375,0.9547271728515625,0.2267913818359375
1701290242311329300,7.514329345703125,0.1732635498046875,0.9467620849609375,0.217437744140625
1701290242321404200,7.524404052734375,0.1698455810546875,0.9398956298828125,0.2082672119140625
1701290242331480300,7.534480224609375,0.177337646484375,0.936279296875,0.199371337890625
1701290242341555500,7.544555419921875,0.1878662109375,0.9371337890625,0.1954345703125
1701290242351631400,7.55463134765625,0.1891632080078125,0.943603515625,0.196563720703125
1701290242361707300,7.564707275390625,0.1895751953125,0.945159912109375,0.2005615234375
1701290242371782400,7.574782470703125,0.19580078125,0.944488525390625,0.2017059326171875
1701290242381858300,7.5848583984375,0.21337890625,0.945343017578125,0.2035369873046875
1701290242391933200,7.59493310546875,0.2308349609375,0.9501495361328125,0.20458984375
1701290242402009300,7.60500927734375,0.2402801513671875,0.9565277099609375,0.20367431640625
1701290242412084200,7.615084228515625,0.23388671875,0.962249755859375,0.2013702392578125
1701290242422160400,7.625160400390625,0.217529296875,0.9622344970703125,0.198699951171875
1701290242432235300,7.6352353515625,0.198760986328125,0.9642486572265625,0.19580078125
1701290242442311200,7.645311279296875,0.192291259765625,0.9753875732421875,0.1793975830078125
1701290242452386300,7.65538623046875,0.1906890869140625,0.9861602783203125,0.1721038818359375
1701290242462462500,7.66546240234375,0.174652099609375,1.0057525634765625,0.182586669921875
1701290242472538000,7.6755380859375,0.151458740234375,1.0151214599609375,0.201416015625
1701290242482613200,7.68561328125,0.1328887939453125,1.0064697265625,0.2143096923828125
1701290242492689400,7.695689453125,0.123809814453125,0.996978759765625,0.2242584228515625
1701290242502764300,7.705764404296875,0.1134033203125,0.9944915771484375,0.2303619384765625
1701290242512840200,7.715840087890625,0.09381103515625,0.999755859375,0.246185302734375
1701290242522915300,7.725915283203125,0.0838470458984375,1.0135650634765625,0.273956298828125
1701290242532991500,7.735991455078125,0.0844573974609375,1.0139923095703125,0.29290771484375
1701290242543066400,7.74606640625,0.0959014892578125,1.0085296630859375,0.3194580078125
1701290242553142300,7.756142333984375,0.125335693359375,1.03375244140625,0.3746795654296875
1701290242563217400,7.766217529296875,0.1617279052734375,1.0615692138671875,0.4222869873046875
1701290242573293300,7.776293212890625,0.1880035400390625,1.06134033203125,0.44842529296875
1701290242583368200,7.7863681640625,0.1892242431640625,1.0380096435546875,0.4587554931640625
1701290242593444400,7.7964443359375,0.160552978515625,1.01715087890625,0.4827880859375
1701290242603520500,7.8065205078125,0.10968017578125,1.0389251708984375,0.523468017578125
1701290242613595100,7.81659521484375,0.0427093505859375,1.0774383544921875,0.54107666015625
1701290242623671300,7.82667138671875,-0.0104827880859375,1.0955810546875,0.5214080810546875
1701290242633746400,7.836746337890625,-0.0275726318359375,1.0834197998046875,0.4832763671875
1701290242643822300,7.846822265625,-0.014617919921875,1.060516357421875,0.457489013671875
1701290242653897200,7.856897216796875,0.006805419921875,1.05889892578125,0.453094482421875
1701290242663973400,7.866973388671875,0.002532958984375,1.078094482421875,0.44268798828125
1701290242674048500,7.877048583984375,-0.0281829833984375,1.0959625244140625,0.388427734375
1701290242684124200,7.887124267578125,-0.0703125,1.0922393798828125,0.29656982421875
1701290242694199300,7.89719921875,-0.0889129638671875,1.0691986083984375,0.214019775390625
1701290242704275500,7.907275390625,-0.0887298583984375,1.0458831787109375,0.1588592529296875
1701290242714351400,7.917351318359375,-0.084075927734375,1.0110626220703125,0.1384429931640625
1701290242724426200,7.92742626953125,-0.068359375,0.9877471923828125,0.1571807861328125
1701290242734502400,7.93750244140625,-0.0264892578125,0.988250732421875,0.1934661865234375
1701290242744577300,7.947577392578125,0.0634307861328125,0.99853515625,0.2223968505859375
1701290242754653200,7.957653076171875,0.1675872802734375,1.0154266357421875,0.2444000244140625
1701290242764728300,7.967728271484375,0.2372283935546875,1.0288848876953125,0.237335205078125
1701290242774804500,7.977804443359375,0.26007080078125,1.0481109619140625,0.2328338623046875
1701290242784879000,7.987879150390625,0.25634765625,1.0519561767578125,0.2159881591796875
1701290242794955300,7.997955322265625,0.2462005615234375,1.0543212890625,0.199371337890625
1701290242805030400,8.008030517578124,0.253814697265625,1.0675048828125,0.1889190673828125
1701290242815106300,8.018106201171875,0.2287445068359375,1.0662078857421875,0.1628570556640625
1701290242825181200,8.02818115234375,0.1799774169921875,1.0699920654296875,0.1389617919921875
1701290242835257300,8.03825732421875,0.112457275390625,1.07916259765625,0.13043212890625
1701290242845333200,8.048333251953125,0.0555877685546875,1.07049560546875,0.1568145751953125
1701290242855408400,8.058408447265625,-0.0017547607421875,1.0462188720703125,0.175506591796875
1701290242865484300,8.068484375,-0.02490234375,1.013153076171875,0.1924896240234375
1701290242875559400,8.078559326171876,-0.0058441162109375,0.9898834228515625,0.2063140869140625
1701290242885635300,8.08863525390625,0.0142974853515625,0.96697998046875,0.2324676513671875
1701290242895710200,8.098710205078126,0.019561767578125,0.93548583984375,0.2685089111328125
1701290242905786400,8.108786376953125,0.0078582763671875,0.9146270751953125,0.2913665771484375
1701290242915861200,8.118861328125,-0.0067291259765625,0.9013519287109375,0.2984161376953125
1701290242925937400,8.1289375,-0.0055084228515625,0.8949432373046875,0.2946319580078125
1701290242936012300,8.13901220703125,0.0019073486328125,0.888671875,0.292083740234375
1701290242946088200,8.149088134765625,0.0112152099609375,0.8857269287109375,0.2719879150390625
1701290242956163300,8.159163330078124,0.0139007568359375,0.8870391845703125,0.2474517822265625
1701290242966239200,8.1692392578125,0.0110321044921875,0.89227294921875,0.2136077880859375
1701290242976315100,8.179315185546875,0.0019073486328125,0.8972015380859375,0.180755615234375
1701290242986390300,8.189390380859376,-0.0144500732421875,0.8963470458984375,0.1470794677734375
1701290242996466400,8.199466552734375,-0.0385284423828125,0.893524169921875,0.11981201171875
1701290243006541300,8.209541259765626,-0.0688323974609375,0.895263671875,0.1052703857421875
1701290243016617200,8.2196171875,-0.0915069580078125,0.898529052734375,0.107452392578125
1701290243026692400,8.2296923828125,-0.1063232421875,0.8983306884765625,0.1175384521484375
1701290243036768500,8.2397685546875,-0.1157073974609375,0.896881103515625,0.1295318603515625
1701290243046843400,8.249843505859374,-0.12286376953125,0.8967742919921875,0.1448211669921875
1701290243056919300,8.259919189453125,-0.125946044921875,0.8954925537109375,0.1636810302734375
1701290243066994400,8.269994384765624,-0.1235504150390625,0.888702392578125,0.1682891845703125
1701290243077070300,8.2800703125,-0.114654541015625,0.872406005859375,0.16180419921875
1701290243087146200,8.290146240234375,-0.10968017578125,0.8540802001953125,0.1619720458984375
1701290243097221400,8.300221435546876,-0.1073150634765625,0.8468475341796875,0.1704254150390625
1701290243107297500,8.310297607421875,-0.1076202392578125,0.8459014892578125,0.1839752197265625
1701290243117372200,8.3203720703125,-0.1102752685546875,0.844146728515625,0.203216552734375
1701290243127448300,8.3304482421875,-0.10968017578125,0.838592529296875,0.2304840087890625
1701290243137523500,8.3405234375,-0.1066436767578125,0.829376220703125,0.2569580078125
1701290243147599000,8.35059912109375,-0.106903076171875,0.82373046875,0.2805938720703125
1701290243157674200,8.36067431640625,-0.1132354736328125,0.8218231201171875,0.30218505859375
1701290243167750400,8.37075048828125,-0.123992919921875,0.82305908203125,0.3189544677734375
1701290243177825300,8.3808251953125,-0.1422119140625,0.8243255615234375,0.335296630859375
1701290243187900700,8.390900634765625,-0.1578826904296875,0.8196258544921875,0.3549957275390625
1701290243197975600,8.4009755859375,-0.1770477294921875,0.81719970703125,0.368743896484375
1701290243208051700,8.4110517578125,-0.1941986083984375,0.819183349609375,0.3925628662109375
1701290243218127600,8.421127685546875,-0.206329345703125,0.827301025390625,0.4247894287109375
1701290243228202800,8.43120263671875,-0.2156982421875,0.8414764404296875,0.45745849609375
1701290243238278700,8.441278564453125,-0.2144927978515625,0.86077880859375,0.476287841796875
1701290243248353800,8.451353759765626,-0.2080078125,0.88177490234375,0.496124267578125
1701290243258429700,8.4614296875,-0.19610595703125,0.8942413330078125,0.5105743408203125
1701290243268504600,8.471504638671876,-0.1866607666015625,0.9011077880859375,0.5143280029296875
1701290243278580700,8.481580810546875,-0.1750946044921875,0.91656494140625,0.50018310546875
1701290243288656000,8.49165576171875,-0.166473388671875,0.9419708251953125,0.4667816162109375
1701290243298731800,8.501731689453125,-0.18072509765625,0.96673583984375,0.423004150390625
1701290243308806700,8.511806640625,-0.2238922119140625,0.9823760986328125,0.3783416748046875
1701290243318882800,8.5218828125,-0.279510498046875,0.9776458740234375,0.3408050537109375
1701290243328958700,8.531958740234375,-0.32208251953125,0.9475555419921875,0.3170318603515625
1701290243339033900,8.542033935546876,-0.3454437255859375,0.905792236328125,0.294189453125
1701290243349109800,8.55210986328125,-0.34613037109375,0.8729095458984375,0.269073486328125
1701290243359184600,8.5621845703125,-0.32904052734375,0.86236572265625,0.2509307861328125
1701290243369260800,8.5722607421875,-0.30047607421875,0.8728485107421875,0.224334716796875
1701290243379335700,8.582335693359376,-0.2608795166015625,0.94195556640625,0.1858062744140625
1701290243389411600,8.59241162109375,-0.20318603515625,1.0380706787109375,0.158538818359375
1701290243399486700,8.60248681640625,-0.152984619140625,1.102874755859375,0.1453399658203125
1701290243409563000,8.61256298828125,-0.1294097900390625,1.1306304931640625,0.125518798828125
1701290243419637800,8.6226376953125,-0.1030731201171875,1.1324310302734375,0.101348876953125
1701290243429713700,8.632713623046875,-0.058563232421875,1.10894775390625,0.0893402099609375
1701290243439789800,8.642789794921875,-0.0153656005859375,1.0645904541015625,0.1108551025390625
1701290243449864700,8.65286474609375,-0.011932373046875,1.035003662109375,0.1871490478515625
1701290243459940600,8.662940673828125,-0.0655059814453125,1.0637969970703125,0.30352783203125
1701290243470015700,8.673015625,-0.1636962890625,1.1268768310546875,0.4032745361328125
1701290243480092000,8.683091796875,-0.261993408203125,1.160675048828125,0.4634246826171875
1701290243490166800,8.693166748046876,-0.3200531005859375,1.105010986328125,0.4829864501953125
1701290243500242700,8.70324267578125,-0.3009033203125,0.9883270263671875,0.478790283203125
1701290243510317800,8.71331787109375,-0.2313690185546875,0.88861083984375,0.4448699951171875
1701290243520393700,8.723393798828125,-0.169677734375,0.82916259765625,0.3809356689453125
1701290243530468600,8.733468505859374,-0.1319580078125,0.8049468994140625,0.3231658935546875
1701290243540544800,8.743544677734375,-0.12225341796875,0.8035430908203125,0.2910614013671875
1701290243550620000,8.753619873046874,-0.1099853515625,0.837158203125,0.2735443115234375
1701290243560695600,8.763695556640625,-0.0613555908203125,0.8989715576171875,0.26385498046875
1701290243570771700,8.773771728515625,0.0203399658203125,0.9682769775390625,0.2603607177734375
1701290243580846800,8.783846923828126,0.110321044921875,1.0183563232421875,0.24945068359375
1701290243590922800,8.7939228515625,0.193359375,1.0423736572265625,0.2371978759765625
1701290243600997600,8.80399755859375,0.2404937744140625,1.0232696533203125,0.244720458984375
1701290243611073800,8.81407373046875,0.252349853515625,0.975982666015625,0.2679443359375
1701290243621149000,8.82414892578125,0.22296142578125,0.9329681396484375,0.3071746826171875
1701290243631224600,8.834224609375,0.1519317626953125,0.9093475341796875,0.3655853271484375
1701290243641299700,8.8442998046875,0.0648956298828125,0.9022369384765625,0.4218292236328125
1701290243651375900,8.8543759765625,0.0077362060546875,0.9042510986328125,0.4607391357421875
1701290243661450800,8.86445068359375,-0.020843505859375,0.919708251953125,0.4625701904296875
1701290243671526700,8.874526611328125,-0.0187225341796875,0.941253662109375,0.41473388671875
1701290243681602800,8.884602783203125,0.0152740478515625,0.9646759033203125,0.3244781494140625
1701290243691677700,8.894677734375,0.0437469482421875,0.98529052734375,0.2144622802734375
1701290243701753900,8.90475390625,0.0695953369140625,0.9977874755859375,0.11810302734375
1701290243711828700,8.914828857421876,0.0856475830078125,0.997406005859375,0.04638671875
1701290243721904600,8.924904541015625,0.0863800048828125,0.997161865234375,0.0054168701171875
1701290243731979800,8.934979736328126,0.0817718505859375,1.0111236572265625,0.0013275146484375
1701290243742055700,8.9450556640625,0.0668182373046875,1.0421295166015625,0.03741455078125
1701290243752130800,8.955130859375,0.0521240234375,1.0482330322265625,0.088592529296875
1701290243762206700,8.965206787109375,0.0441741943359375,1.0158538818359375,0.152679443359375
1701290243772281600,8.975281494140624,0.0543975830078125,0.9689178466796875,0.2229766845703125
1701290243782357800,8.985357666015625,0.0595855712890625,0.937896728515625,0.2853851318359375
1701290243792433700,8.99543359375,0.075042724609375,0.9331817626953125,0.322784423828125
1701290243802508800,9.0055087890625,0.092742919921875,0.9354400634765625,0.3274688720703125
1701290243812584700,9.015584716796875,0.1054229736328125,0.9315643310546875,0.303253173828125
1701290243822659800,9.025659912109376,0.1223297119140625,0.9208221435546875,0.2779693603515625
1701290243832735700,9.03573583984375,0.136566162109375,0.922088623046875,0.263092041015625
1701290243842810600,9.045810546875,0.14642333984375,0.933319091796875,0.2567138671875
1701290243852886800,9.05588671875,0.1454010009765625,0.9423675537109375,0.2521514892578125
1701290243862961700,9.065961669921874,0.1391143798828125,0.93804931640625,0.257568359375
1701290243873037800,9.076037841796875,0.1409759521484375,0.93017578125,0.259429931640625
1701290243883112700,9.08611279296875,0.15264892578125,0.9315185546875,0.262359619140625
1701290243893188600,9.096188720703125,0.163421630859375,0.9366302490234375,0.261810302734375
1701290243903264800,9.1062646484375,0.1648406982421875,0.9350128173828125,0.2586212158203125
1701290243913340000,9.11633984375,0.1631011962890625,0.9219970703125,0.2516937255859375
1701290243923415600,9.12641552734375,0.161712646484375,0.9160614013671875,0.247955322265625
1701290243933490700,9.13649072265625,0.1482696533203125,0.931243896484375,0.2477569580078125
1701290243943566800,9.14656689453125,0.1222686767578125,0.9589691162109375,0.2409515380859375
1701290243953641700,9.156641845703126,0.0820770263671875,0.9864654541015625,0.231842041015625
1701290243963717600,9.166717529296875,0.0443572998046875,0.9960479736328125,0.2190399169921875
1701290243973792800,9.176792724609374,0.0325469970703125,0.9868011474609375,0.2145233154296875
1701290243983869000,9.186868896484375,0.05206298828125,0.9838409423828125,0.2273101806640625
1701290243993943800,9.19694384765625,0.0752105712890625,0.9902801513671875,0.2476654052734375
1701290244004019700,9.207019775390625,0.0758819580078125,0.992156982421875,0.2608795166015625
1701290244014096000,9.217095947265625,0.0650634765625,0.9778289794921875,0.268157958984375
1701290244024170800,9.227170654296875,0.059173583984375,0.9614410400390625,0.289886474609375
1701290244034246700,9.23724658203125,0.07440185546875,0.943939208984375,0.315521240234375
1701290244044321800,9.24732177734375,0.0892486572265625,0.929595947265625,0.3339996337890625
1701290244054397700,9.257397705078125,0.0963134765625,0.921966552734375,0.3511199951171875
1701290244064472600,9.26747265625,0.1082305908203125,0.9161834716796875,0.3625030517578125
1701290244074548700,9.277548828125,0.1305999755859375,0.9143524169921875,0.365478515625
1701290244084624000,9.287623779296876,0.1569976806640625,0.91156005859375,0.3625640869140625
1701290244094699500,9.297699462890625,0.1805572509765625,0.9040374755859375,0.36090087890625
1701290244104774700,9.307774658203124,0.1923370361328125,0.8953399658203125,0.3534698486328125
1701290244114850800,9.317850830078125,0.1930389404296875,0.894073486328125,0.3379669189453125
1701290244124926000,9.327926025390624,0.1840362548828125,0.8955841064453125,0.31182861328125
1701290244135001600,9.338001708984375,0.1666107177734375,0.89923095703125,0.293182373046875
1701290244145077800,9.348077880859375,0.1572113037109375,0.908935546875,0.2800445556640625
1701290244155153000,9.35815283203125,0.148284912109375,0.932373046875,0.2655181884765625
1701290244165228800,9.368228759765625,0.132965087890625,0.9557342529296875,0.2380523681640625
1701290244175303700,9.3783037109375,0.120574951171875,0.9619293212890625,0.2048492431640625
1701290244185379800,9.3883798828125,0.1204681396484375,0.95458984375,0.163604736328125
1701290244195454500,9.398454345703126,0.1371002197265625,0.955657958984375,0.13092041015625
1701290244205530400,9.4085302734375,0.1473236083984375,0.9784393310546875,0.109954833984375
1701290244215605200,9.418605224609376,0.12835693359375,1.0097808837890625,0.098724365234375
1701290244225681400,9.428681396484375,0.0983428955078125,1.0350341796875,0.1087493896484375
1701290244235757300,9.43875732421875,0.062042236328125,1.0325775146484375,0.126617431640625
1701290244245832200,9.448832275390625,0.034149169921875,1.00640869140625,0.1663665771484375
1701290244255908400,9.458908447265625,0.0210113525390625,0.9835052490234375,0.2439727783203125
1701290244265983200,9.468983154296875,0.015472412109375,0.97869873046875,0.3387908935546875
1701290244276059400,9.479059326171875,0.0329132080078125,1.0195770263671875,0.4444427490234375
1701290244286134300,9.48913427734375,0.0673675537109375,1.066162109375,0.4987945556640625
1701290244296210200,9.499210205078125,0.1022491455078125,1.0904693603515625,0.4856109619140625
1701290244306285300,9.509285400390626,0.1183013916015625,1.0911102294921875,0.45587158203125
1701290244316361500,9.519361572265625,0.10626220703125,1.0737457275390625,0.4530029296875
1701290244326436400,9.529436279296876,0.0593109130859375,1.09039306640625,0.4745941162109375
1701290244336512300,9.53951220703125,-0.0185089111328125,1.1340179443359375,0.4925079345703125
1701290244346588400,9.54958837890625,-0.1009368896484375,1.1621856689453125,0.485076904296875
1701290244356663300,9.559663330078125,-0.13140869140625,1.151458740234375,0.4700775146484375
1701290244366739200,9.5697392578125,-0.12371826171875,1.120758056640625,0.4654541015625
1701290244376814300,9.579814453125,-0.1195526123046875,1.1177215576171875,0.45733642578125
1701290244386890500,9.589890380859375,-0.128570556640625,1.13336181640625,0.4103851318359375
1701290244396965400,9.59996533203125,-0.144012451171875,1.1370086669921875,0.321929931640625
1701290244407041300,9.610041259765625,-0.157806396484375,1.1212005615234375,0.2181396484375
1701290244417116400,9.620116455078126,-0.137603759765625,1.0938262939453125,0.15167236328125
1701290244427192300,9.6301923828125,-0.0933380126953125,1.05572509765625,0.138763427734375
1701290244437267200,9.64026708984375,-0.06207275390625,1.0125274658203125,0.153533935546875
1701290244447343400,9.65034326171875,-0.019805908203125,0.9785919189453125,0.1814117431640625
1701290244457418200,9.660418212890624,0.0697021484375,0.9647064208984375,0.231719970703125
1701290244467494100,9.670494140625,0.19354248046875,0.973480224609375,0.2607879638671875
1701290244477570300,9.6805703125,0.291534423828125,1.000762939453125,0.2514190673828125
1701290244487645400,9.6906455078125,0.36737060546875,1.044677734375,0.24517822265625
1701290244497721300,9.700721435546875,0.3612823486328125,1.061920166015625,0.24755859375
1701290244507796200,9.710796142578126,0.310516357421875,1.0397491455078125,0.23309326171875
1701290244517872400,9.720872314453125,0.2579803466796875,1.0220184326171875,0.2259368896484375
1701290244527947500,9.730947509765626,0.1823272705078125,1.0204620361328125,0.2274169921875
1701290244538023200,9.741023193359375,0.0720062255859375,1.0389404296875,0.2086639404296875
1701290244548098300,9.751098388671876,-0.0316925048828125,1.0518035888671875,0.2056732177734375
1701290244558174500,9.761174560546875,-0.1003265380859375,1.0377044677734375,0.1992034912109375
1701290244568249300,9.771249267578124,-0.1213531494140625,1.0044708251953125,0.17626953125
1701290244578325200,9.7813251953125,-0.1017303466796875,0.9716644287109375,0.16290283203125
1701290244588401400,9.7914013671875,-0.0608062744140625,0.95465087890625,0.169586181640625
1701290244598476300,9.801476318359375,-0.03302001953125,0.9494781494140625,0.1781768798828125
1701290244608552200,9.81155224609375,-0.0105133056640625,0.9337615966796875,0.1885223388671875
1701290244618627300,9.82162744140625,0.0098114013671875,0.9074554443359375,0.1910858154296875
1701290244628703200,9.831703125,0.0281524658203125,0.8840789794921875,0.1987762451171875
1701290244638778000,9.841778076171876,0.03802490234375,0.8652191162109375,0.2078399658203125
1701290244648854300,9.851854248046875,0.033172607421875,0.850830078125,0.214080810546875
1701290244658929400,9.861929443359376,0.0167236328125,0.8448486328125,0.2174835205078125
1701290244669005300,9.87200537109375,-0.00836181640625,0.84576416015625,0.2218170166015625
1701290244679080200,9.882080078125,-0.033447265625,0.857391357421875,0.219482421875
1701290244689156400,9.89215625,-0.049530029296875,0.8726043701171875,0.2154388427734375
1701290244699232300,9.902232177734374,-0.06402587890625,0.883026123046875,0.2145843505859375
1701290244709307400,9.912307373046875,-0.07879638671875,0.88665771484375,0.20819091796875
1701290244719383300,9.92238330078125,-0.0948028564453125,0.887298583984375,0.2057647705078125
1701290244729458400,9.93245849609375,-0.1052398681640625,0.8937530517578125,0.207611083984375
1701290244739534300,9.942534423828125,-0.1082000732421875,0.89459228515625,0.2062225341796875
1701290244749609200,9.952609130859376,-0.1039581298828125,0.89581298828125,0.202606201171875
1701290244759685400,9.962685302734375,-0.0983428955078125,0.8951416015625,0.1876220703125
1701290244769760300,9.97276025390625,-0.101043701171875,0.8948516845703125,0.1669921875
1701290244779836400,9.98283642578125,-0.1118621826171875,0.8978729248046875,0.1475830078125
1701290244789911300,9.992911376953124,-0.1307830810546875,0.90106201171875,0.137786865234375
1701290244799987200,10.0029873046875,-0.1526336669921875,0.89764404296875,0.1455230712890625
1701290244810063400,10.0130634765625,-0.1681671142578125,0.8942718505859375,0.1677398681640625
1701290244820138200,10.02313818359375,-0.1738128662109375,0.89862060546875,0.20428466796875
1701290244830214100,10.033214111328125,-0.174591064453125,0.899261474609375,0.2461395263671875
1701290244840289300,10.043289306640625,-0.1696929931640625,0.896270751953125,0.2834320068359375
1701290244850365400,10.053365478515625,-0.1607513427734375,0.8885498046875,0.314117431640625
1701290244860440300,10.0634404296875,-0.1530303955078125,0.8744964599609375,0.339630126953125
1701290244870516200,10.07351611328125,-0.1532745361328125,0.86248779296875,0.359649658203125
1701290244880591400,10.08359130859375,-0.1518096923828125,0.8582611083984375,0.3771514892578125
1701290244890667500,10.09366748046875,-0.15374755859375,0.8637237548828125,0.39422607421875
1701290244900742400,10.103742431640624,-0.1670074462890625,0.8780517578125,0.406768798828125
1701290244910818300,10.113818359375,-0.1783294677734375,0.8912811279296875,0.416229248046875
1701290244920894500,10.12389453125,-0.1865386962890625,0.8945465087890625,0.4233856201171875
1701290244930969300,10.13396923828125,-0.191925048828125,0.8847503662109375,0.4378662109375
1701290244941045200,10.144045166015625,-0.191864013671875,0.860992431640625,0.4542694091796875
1701290244951120400,10.154120361328125,-0.18499755859375,0.841094970703125,0.4630279541015625
1701290244961196500,10.164196533203125,-0.17486572265625,0.839508056640625,0.4668426513671875
1701290244971271200,10.174271240234376,-0.16961669921875,0.8571014404296875,0.466400146484375
1701290244981347300,10.184347412109375,-0.1742401123046875,0.8829193115234375,0.465057373046875
1701290244991422500,10.19442236328125,-0.1787261962890625,0.893890380859375,0.4658355712890625
1701290245001498000,10.204498046875,-0.1724853515625,0.8889007568359375,0.4593048095703125
1701290245011574300,10.21457421875,-0.1620635986328125,0.870452880859375,0.44268798828125
1701290245021649400,10.2246494140625,-0.1650390625,0.8508453369140625,0.422760009765625
1701290245031725300,10.234725341796874,-0.1876678466796875,0.835357666015625,0.4045257568359375
1701290245041800200,10.24480029296875,-0.223388671875,0.823944091796875,0.3922271728515625
1701290245051876400,10.25487646484375,-0.2563323974609375,0.8129425048828125,0.3854827880859375
1701290245061951500,10.264951416015625,-0.278106689453125,0.8074188232421875,0.38641357421875
1701290245072027100,10.275027099609375,-0.2906951904296875,0.812744140625,0.3869781494140625
1701290245082102300,10.285102294921876,-0.292144775390625,0.821685791015625,0.377716064453125
1701290245092178400,10.295178466796875,-0.2704010009765625,0.8855743408203125,0.350494384765625
1701290245102253300,10.30525341796875,-0.2164154052734375,1.0048828125,0.3131103515625
1701290245112329200,10.3153291015625,-0.16119384765625,1.0908966064453125,0.2674407958984375
1701290245122405400,10.3254052734375,-0.1198272705078125,1.093475341796875,0.2197723388671875
1701290245132480300,10.335480224609375,-0.076873779296875,1.017120361328125,0.1766357421875
1701290245142556400,10.345556396484374,-0.0093536376953125,0.946044921875,0.1459197998046875
1701290245152631300,10.35563134765625,0.03546142578125,0.9554443359375,0.13751220703125
1701290245162707500,10.36570751953125,0.00543212890625,1.077484130859375,0.1795501708984375
1701290245172782300,10.3757822265625,-0.10589599609375,1.225067138671875,0.26080322265625
1701290245182858200,10.385858154296875,-0.2364501953125,1.3105010986328125,0.344635009765625
1701290245192933600,10.39593359375,-0.3005218505859375,1.3077239990234375,0.4271392822265625
1701290245203009300,10.40600927734375,-0.327239990234375,1.2377471923828125,0.47222900390625
1701290245213084400,10.41608447265625,-0.359771728515625,1.1382904052734375,0.47918701171875
1701290245223160600,10.42616064453125,-0.3629608154296875,1.0466766357421875,0.4659576416015625
1701290245233236500,10.436236572265624,-0.341522216796875,0.9545745849609375,0.41961669921875
1701290245243311400,10.446311279296875,-0.2889404296875,0.885589599609375,0.35992431640625
1701290245253387500,10.456387451171874,-0.173736572265625,0.846435546875,0.29541015625
1701290245263462700,10.466462646484375,0.028717041015625,0.8298492431640625,0.2033538818359375
1701290245273538300,10.476538330078125,0.2794647216796875,0.8207244873046875,0.1012115478515625
1701290245283613400,10.486613525390625,0.4828948974609375,0.817291259765625,0.0333099365234375
1701290245293689600,10.496689697265625,0.5757293701171875,0.83551025390625,0.0248260498046875
1701290245303764200,10.50676416015625,0.537384033203125,0.866729736328125,0.0489349365234375
1701290245313840400,10.51684033203125,0.4025115966796875,0.9014739990234375,0.0854644775390625
1701290245323915500,10.52691552734375,0.2306365966796875,0.939727783203125,0.1861114501953125
1701290245333991400,10.536991455078125,0.0071563720703125,0.944671630859375,0.35809326171875
1701290245344067300,10.5470673828125,-0.2207489013671875,0.9243927001953125,0.5309906005859375
1701290245354142500,10.557142578125,-0.2580413818359375,0.891998291015625,0.64697265625
1701290245364218400,10.56721826171875,-0.1575927734375,0.8623046875,0.666015625
1701290245374293200,10.577293212890625,-0.09295654296875,0.8743743896484375,0.6055908203125
1701290245384369400,10.587369384765625,-0.0560455322265625,0.92791748046875,0.46527099609375
1701290245394444500,10.597444580078125,-0.0010833740234375,0.9968719482421875,0.2979278564453125
1701290245404520400,10.6075205078125,0.074859619140625,1.0347747802734375,0.154144287109375
1701290245414595300,10.61759521484375,0.1554412841796875,1.05267333984375,0.06976318359375
1701290245424671500,10.62767138671875,0.1975555419921875,1.060943603515625,0.03472900390625
1701290245434746600,10.63774658203125,0.193115234375,1.053497314453125,0.0245208740234375
1701290245444822500,10.647822509765625,0.1209259033203125,1.048492431640625,0.0361328125
1701290245454898400,10.6578984375,0.051055908203125,1.0507659912109375,0.1398162841796875
1701290245464973600,10.6679736328125,-0.0042572021484375,1.039031982421875,0.2824554443359375
1701290245475049500,10.678049560546874,-0.014373779296875,1.021697998046875,0.37139892578125
1701290245485124400,10.688124267578125,0.0074310302734375,0.99749755859375,0.4066162109375
1701290245495200500,10.698200439453124,0.0415802001953125,0.9674224853515625,0.3834991455078125
1701290245505275400,10.708275390625,0.081634521484375,0.945343017578125,0.3268890380859375
1701290245515351600,10.7183515625,0.11468505859375,0.93408203125,0.2818603515625
1701290245525426400,10.728426513671875,0.1262054443359375,0.91973876953125,0.24945068359375
1701290245535502300,10.73850244140625,0.13665771484375,0.904052734375,0.23748779296875
1701290245545577500,10.748577392578126,0.1519927978515625,0.90191650390625,0.23046875
1701290245555653400,10.7586533203125,0.162689208984375,0.91290283203125,0.22711181640625
1701290245565729300,10.768729248046874,0.1614990234375,0.9185638427734375,0.2318115234375
1701290245575804400,10.778804443359375,0.152618408203125,0.916900634765625,0.2234649658203125
1701290245585880600,10.788880615234374,0.1353912353515625,0.911468505859375,0.2134552001953125
1701290245595955500,10.79895556640625,0.115386962890625,0.9141082763671875,0.2020263671875
1701290245606031400,10.80903125,0.1068267822265625,0.923126220703125,0.184906005859375
1701290245616106500,10.8191064453125,0.1117706298828125,0.9301300048828125,0.1688690185546875
1701290245626182700,10.8291826171875,0.1278228759765625,0.93011474609375,0.1560821533203125
1701290245636257500,10.839257568359375,0.1461181640625,0.9339599609375,0.1579132080078125
1701290245646333400,10.84933349609375,0.164703369140625,0.953338623046875,0.1762847900390625
1701290245656408600,10.85940869140625,0.176788330078125,0.973175048828125,0.19970703125
1701290245666484500,10.869484375,0.180938720703125,0.9681243896484375,0.216400146484375
1701290245676560400,10.879560302734374,0.1679840087890625,0.9440155029296875,0.2344818115234375
1701290245686635500,10.889635498046875,0.1525421142578125,0.9264678955078125,0.259185791015625
1701290245696711400,10.89971142578125,0.1400604248046875,0.930877685546875,0.283935546875
1701290245706786300,10.909786376953125,0.1373443603515625,0.9510498046875,0.2938232421875
1701290245716862500,10.919862548828124,0.1312713623046875,0.9654388427734375,0.276336669921875
1701290245726937600,10.9299375,0.11822509765625,0.9589080810546875,0.2481842041015625
1701290245737013200,10.94001318359375,0.1177215576171875,0.950164794921875,0.23248291015625
1701290245747088400,10.95008837890625,0.134552001953125,0.94476318359375,0.22857666015625
1701290245757164500,10.96016455078125,0.156158447265625,0.9453887939453125,0.2299041748046875
1701290245767240400,10.970240478515626,0.17327880859375,0.948150634765625,0.2383575439453125
1701290245777315300,10.9803154296875,0.1768951416015625,0.946136474609375,0.24755859375
1701290245787391500,10.9903916015625,0.1725006103515625,0.9328460693359375,0.259185791015625
1701290245797466600,11.000466552734375,0.1702117919921875,0.921630859375,0.2787322998046875
1701290245807542500,11.01054248046875,0.169647216796875,0.91632080078125,0.29705810546875
1701290245817617400,11.020617431640625,0.169097900390625,0.9229583740234375,0.31024169921875
1701290245827693600,11.030693603515624,0.1710968017578125,0.9358673095703125,0.3173675537109375
1701290245837768400,11.0407685546875,0.171234130859375,0.9443359375,0.3113250732421875
1701290245847844400,11.05084423828125,0.170440673828125,0.9393310546875,0.309814453125
1701290245857919500,11.06091943359375,0.17364501953125,0.9341583251953125,0.3063507080078125
1701290245867995400,11.070995361328125,0.1826171875,0.936859130859375,0.3039093017578125
1701290245878071600,11.081071533203126,0.1886138916015625,0.9514007568359375,0.3034515380859375
1701290245888146400,11.091146484375,0.1831512451171875,0.97186279296875,0.2975616455078125
1701290245898222300,11.101222412109376,0.164306640625,0.983062744140625,0.2840423583984375
1701290245908297500,11.11129736328125,0.1350555419921875,0.986358642578125,0.2684326171875
1701290245918373400,11.121373291015624,0.101165771484375,0.9823150634765625,0.2510528564453125
1701290245928448500,11.131448486328125,0.0657501220703125,0.9765625,0.2342071533203125
1701290245938524400,11.1415244140625,0.0286865234375,0.9757080078125,0.2230224609375
1701290245948599300,11.151599365234375,0.007476806640625,0.9771728515625,0.2256622314453125
1701290245958675500,11.161675537109375,0.0052947998046875,0.97760009765625,0.23272705078125
1701290245968750600,11.17175048828125,0.02972412109375,0.9722900390625,0.251068115234375
1701290245978826500,11.181826416015625,0.063751220703125,0.9702911376953125,0.2715911865234375
1701290245988902400,11.19190234375,0.09210205078125,0.957855224609375,0.3013916015625
1701290245998977500,11.2019775390625,0.1177825927734375,0.9772186279296875,0.3656768798828125
1701290246009053400,11.212053466796876,0.1549835205078125,1.0198822021484375,0.4256591796875
1701290246019128600,11.222128662109375,0.19866943359375,1.0338134765625,0.4418487548828125
1701290246029204500,11.23220458984375,0.2217864990234375,1.0126800537109375,0.4356689453125
1701290246039279400,11.242279296875,0.211090087890625,0.987030029296875,0.440887451171875
1701290246049355500,11.25235546875,0.175628662109375,1.0113525390625,0.459014892578125
1701290246059430400,11.262430419921875,0.1203460693359375,1.0692596435546875,0.449249267578125
1701290246069506300,11.27250634765625,0.070068359375,1.1193389892578125,0.409027099609375
1701290246079581400,11.28258154296875,0.0400543212890625,1.1436004638671875,0.3561553955078125
1701290246089657600,11.29265771484375,0.029327392578125,1.1536712646484375,0.3268585205078125
1701290246099733200,11.302733154296876,0.0202178955078125,1.1590423583984375,0.32110595703125
1701290246109808400,11.312808349609375,-0.0051116943359375,1.1654052734375,0.311126708984375
1701290246119884500,11.322884521484376,-0.0493316650390625,1.154388427734375,0.2814483642578125
1701290246129959400,11.33295947265625,-0.090423583984375,1.13153076171875,0.2437591552734375
1701290246140035300,11.343035400390624,-0.1043701171875,1.12750244140625,0.22052001953125
1701290246150110500,11.3531103515625,-0.105865478515625,1.1259307861328125,0.2117462158203125
1701290246160186600,11.3631865234375,-0.1092681884765625,1.1052703857421875,0.207794189453125
1701290246170261500,11.373261474609375,-0.116973876953125,1.0626983642578125,0.2181854248046875
1701290246180337400,11.38333740234375,-0.113616943359375,1.004638671875,0.2439727783203125
1701290246190414000,11.3934140625,-0.0711212158203125,0.949798583984375,0.2832183837890625
1701290246200489200,11.4034892578125,0.008453369140625,0.9031219482421875,0.328094482421875
1701290246210565000,11.413565185546876,0.0959930419921875,0.87493896484375,0.366546630859375
1701290246220640300,11.42364013671875,0.1552581787109375,0.867523193359375,0.3895263671875
1701290246230716200,11.433716064453124,0.1803741455078125,0.8792724609375,0.3966064453125
1701290246240791000,11.443791015625,0.156036376953125,0.9116363525390625,0.3878326416015625
1701290246250867200,11.4538671875,0.130096435546875,0.9519195556640625,0.3552703857421875
1701290246260942300,11.4639423828125,0.1253662109375,0.99749755859375,0.303924560546875
1701290246271018200,11.474018310546874,0.13128662109375,1.02996826171875,0.238494873046875
1701290246281093000,11.484093017578125,0.128875732421875,1.0453338623046875,0.1723785400390625
1701290246291169300,11.494169189453125,0.1066131591796875,1.0604248046875,0.12921142578125
1701290246301245200,11.5042451171875,0.065643310546875,1.0856781005859375,0.1161346435546875
1701290246311320300,11.5143203125,0.0352630615234375,1.1139068603515625,0.127044677734375
1701290246321396200,11.524396240234376,0.0183563232421875,1.1301727294921875,0.1432952880859375
1701290246331471000,11.53447119140625,-0.012603759765625,1.11322021484375,0.157958984375
1701290246341547300,11.54454736328125,-0.0365142822265625,1.0612945556640625,0.17529296875
1701290246351622100,11.5546220703125,-0.032989501953125,1.0106048583984375,0.19915771484375
1701290246361698000,11.564697998046874,-0.01385498046875,0.9693145751953125,0.2220458984375
1701290246371773200,11.574773193359375,0.0080413818359375,0.944976806640625,0.2434539794921875
1701290246381849300,11.584849365234374,0.0113677978515625,0.931121826171875,0.2434844970703125
1701290246391924200,11.59492431640625,0.0014495849609375,0.9294586181640625,0.2408905029296875
1701290246402000100,11.605000244140625,-0.0149383544921875,0.92645263671875,0.2548980712890625
1701290246412076300,11.615076171875,-0.02789306640625,0.920379638671875,0.2719879150390625
1701290246422151200,11.625151123046875,-0.040771484375,0.919647216796875,0.2733154296875
1701290246432227000,11.63522705078125,-0.0492095947265625,0.923370361328125,0.271240234375
1701290246442302200,11.64530224609375,-0.0469970703125,0.9290313720703125,0.250885009765625
1701290246452378400,11.65537841796875,-0.045013427734375,0.9264068603515625,0.218963623046875
1701290246462453200,11.665453369140625,-0.0489349365234375,0.908843994140625,0.187835693359375
1701290246472529200,11.675529052734374,-0.051025390625,0.888153076171875,0.1587982177734375
1701290246482604300,11.685604248046875,-0.0476226806640625,0.8695526123046875,0.146697998046875
1701290246492680200,11.69568017578125,-0.04400634765625,0.854522705078125,0.138519287109375
1701290246502756000,11.705756103515625,-0.0390167236328125,0.8496856689453125,0.1279449462890625
1701290246512831200,11.715831298828125,-0.0347442626953125,0.8504791259765625,0.1190948486328125
1701290246522907100,11.7259072265625,-0.031829833984375,0.849700927734375,0.1063232421875
1701290246532982000,11.73598193359375,-0.0326080322265625,0.8465576171875,0.096954345703125
1701290246543058200,11.74605810546875,-0.0396728515625,0.84429931640625,0.0948028564453125
1701290246553133300,11.75613330078125,-0.0524139404296875,0.8437652587890625,0.10345458984375
1701290246563209200,11.766209228515624,-0.063720703125,0.8452301025390625,0.1238555908203125
1701290246573284000,11.7762841796875,-0.0662689208984375,0.84686279296875,0.1536865234375
1701290246583360300,11.7863603515625,-0.0659637451171875,0.850311279296875,0.1851654052734375
1701290246593435400,11.796435302734375,-0.0640411376953125,0.8519287109375,0.2205657958984375
1701290246603511000,11.806510986328124,-0.0691986083984375,0.851165771484375,0.252777099609375
1701290246613587200,11.816587158203125,-0.08160400390625,0.8499908447265625,0.2790985107421875
1701290246623662300,11.826662353515625,-0.0924835205078125,0.8521728515625,0.30224609375
1701290246633738200,11.83673828125,-0.1052398681640625,0.8517913818359375,0.326812744140625
1701290246643813000,11.846813232421875,-0.126678466796875,0.8500823974609375,0.3557281494140625
1701290246653889300,11.85688916015625,-0.152923583984375,0.8500213623046875,0.39080810546875
1701290246663964200,11.866964111328125,-0.1949310302734375,0.8603515625,0.4378814697265625
1701290246674040000,11.8770400390625,-0.236907958984375,0.884857177734375,0.487060546875
1701290246684115200,11.887115234375,-0.26287841796875,0.9205322265625,0.53076171875
1701290246694191000,11.897191162109374,-0.268280029296875,0.9369964599609375,0.5786285400390625
1701290246704266200,11.907266357421875,-0.2561798095703125,0.9407806396484375,0.6148223876953125
1701290246714342100,11.917342041015624,-0.22808837890625,0.943634033203125,0.6266326904296875
1701290246724418000,11.92741796875,-0.20458984375,0.9389801025390625,0.621307373046875
1701290246734493200,11.9374931640625,-0.19891357421875,0.9207763671875,0.597930908203125
1701290246744569300,11.9475693359375,-0.218536376953125,0.902679443359375,0.555206298828125
1701290246754644200,11.957644287109375,-0.26129150390625,0.89154052734375,0.514984130859375
1701290246764720000,11.96772021484375,-0.3132171630859375,0.865203857421875,0.501922607421875
1701290246774795300,11.977795166015625,-0.3630218505859375,0.83258056640625,0.50030517578125
1701290246784871200,11.98787109375,-0.3728485107421875,0.7909698486328125,0.485137939453125
1701290246794946300,11.9979462890625,-0.327362060546875,0.7288055419921875,0.451324462890625
1701290246805022200,12.008022216796874,-0.22833251953125,0.67974853515625,0.37945556640625
1701290246815098400,12.018098388671875,-0.10198974609375,0.7299041748046875,0.25482177734375
1701290246825173200,12.02817333984375,0.032318115234375,0.880615234375,0.1141357421875
1701290246835249200,12.038249267578125,0.16754150390625,1.022796630859375,0.0009918212890625
1701290246845324300,12.04832421875,0.2408905029296875,1.0595855712890625,-0.074005126953125
1701290246855400200,12.058400146484376,0.2544097900390625,0.9676361083984375,-0.1156768798828125
1701290246865475000,12.06847509765625,0.22406005859375,0.8719482421875,-0.1256866455078125
1701290246875551200,12.07855126953125,0.10540771484375,0.9322967529296875,-0.09552001953125
1701290246885626000,12.088626220703125,-0.1246337890625,1.141693115234375,0.0762481689453125
1701290246895702000,12.098701904296876,-0.423675537109375,1.3824462890625,0.3692474365234375
1701290246905777200,12.108777099609375,-0.6152191162109375,1.5735931396484375,0.65997314453125
1701290246915853300,12.118853271484374,-0.59234619140625,1.538482666015625,0.830596923828125
1701290246925928200,12.12892822265625,-0.5587310791015625,1.2839813232421875,0.8558502197265625
1701290246936004000,12.139004150390624,-0.4782562255859375,0.9744110107421875,0.7749481201171875
1701290246946080300,12.149080322265625,-0.3582000732421875,0.810516357421875,0.669586181640625
1701290246956155400,12.1591552734375,-0.2711944580078125,0.7772369384765625,0.5657196044921875
1701290246966231000,12.16923095703125,-0.23516845703125,0.791290283203125,0.4496917724609375
1701290246976306200,12.17930615234375,-0.146209716796875,0.8114166259765625,0.324737548828125
1701290246986382300,12.18938232421875,0.089141845703125,0.8311920166015625,0.1776885986328125
1701290246996457200,12.199457275390625,0.4068603515625,0.869842529296875,0.0388641357421875
1701290247006533000,12.209533203125,0.6322021484375,0.8988189697265625,-0.0373382568359375
1701290247016608300,12.219608154296875,0.6576690673828125,0.8870391845703125,-0.038909912109375
1701290247026684200,12.22968408203125,0.5296478271484375,0.868133544921875,-0.0108184814453125
1701290247036760000,12.239760009765625,0.3771209716796875,0.86041259765625,0.047576904296875
1701290247046835200,12.249835205078124,0.212799072265625,0.8740081787109375,0.19134521484375
1701290247056911000,12.2599111328125,-0.044403076171875,0.9084930419921875,0.38885498046875
1701290247066986000,12.269986083984374,-0.3436279296875,0.963226318359375,0.60357666015625
1701290247077062100,12.280062255859375,-0.285888671875,1.002655029296875,0.7032928466796875
1701290247087137300,12.29013720703125,-0.06683349609375,1.0065460205078125,0.664764404296875
1701290247097213200,12.300213134765626,0.0395355224609375,0.9975128173828125,0.5282745361328125
1701290247107288000,12.3102880859375,0.0805816650390625,1.019866943359375,0.29803466796875
1701290247117364200,12.3203642578125,0.1251373291015625,1.0577239990234375,0.116241455078125
1701290247127439400,12.330439453125,0.1787261962890625,1.072845458984375,0.0110626220703125
1701290247137515300,12.340515380859374,0.230621337890625,1.066070556640625,-0.0350341796875
1701290247147591200,12.350591064453125,0.2018585205078125,1.0588531494140625,-0.0415802001953125
1701290247157666300,12.360666259765624,0.1215972900390625,1.058135986328125,-0.0278778076171875
1701290247167742200,12.3707421875,0.0313568115234375,1.0467529296875,0.0435638427734375
1701290247177817000,12.380817138671874,-0.03448486328125,1.0150604248046875,0.2009429931640625
1701290247187893200,12.390893310546875,-0.0355377197265625,0.9749298095703125,0.329833984375
1701290247197967600,12.400967529296874,0.0103607177734375,0.935394287109375,0.3926239013671875
1701290247208043500,12.41104345703125,0.057098388671875,0.8942108154296875,0.4069976806640625
1701290247218118700,12.42111865234375,0.119293212890625,0.8608856201171875,0.402557373046875
1701290247228194800,12.43119482421875,0.1882171630859375,0.83697509765625,0.3964080810546875
1701290247238270500,12.4412705078125,0.22943115234375,0.8434600830078125,0.3791961669921875
1701290247248345600,12.451345703125,0.2378082275390625,0.8673095703125,0.3562469482421875
1701290247258421800,12.461421875,0.228118896484375,0.8955535888671875,0.32025146484375
1701290247268496600,12.47149658203125,0.1970672607421875,0.910980224609375,0.2786865234375
1701290247278572500,12.481572509765625,0.1543731689453125,0.903778076171875,0.2364654541015625
1701290247288647700,12.491647705078124,0.11431884765625,0.889617919921875,0.2119903564453125
1701290247298723600,12.5017236328125,0.0977020263671875,0.892303466796875,0.2076873779296875
1701290247308798500,12.511798583984374,0.1096038818359375,0.9163360595703125,0.2210540771484375
1701290247318874600,12.52187451171875,0.137451171875,0.947296142578125,0.229827880859375
1701290247328949800,12.53194970703125,0.1680755615234375,0.9603271484375,0.225311279296875
1701290247339025400,12.542025390625,0.1881561279296875,0.9590911865234375,0.2086029052734375
1701290247349101600,12.5521015625,0.195037841796875,0.9573974609375,0.1904144287109375
1701290247359176700,12.5621767578125,0.1854248046875,0.9592132568359375,0.1795501708984375
1701290247369252600,12.572252685546875,0.16943359375,0.964324951171875,0.1691131591796875
1701290247379327500,12.582327392578126,0.15411376953125,0.961639404296875,0.166412353515625
1701290247389403600,12.592403564453125,0.1469879150390625,0.9526519775390625,0.1695556640625
1701290247399478800,12.602478759765624,0.1417083740234375,0.9490509033203125,0.183197021484375
1701290247409554700,12.6125546875,0.1407470703125,0.951080322265625,0.2033843994140625
1701290247419629600,12.622629638671874,0.1379547119140625,0.95330810546875,0.2189788818359375
1701290247429705700,12.632705810546875,0.144927978515625,0.9534912109375,0.227020263671875
1701290247439781600,12.64278173828125,0.156341552734375,0.9499359130859375,0.225982666015625
1701290247449856500,12.6528564453125,0.16650390625,0.9433746337890625,0.2343292236328125
1701290247459932700,12.6629326171875,0.1669158935546875,0.936553955078125,0.2460479736328125
1701290247470007600,12.673007568359376,0.1592559814453125,0.93988037109375,0.2591705322265625
1701290247480083700,12.683083740234375,0.1524658203125,0.956817626953125,0.2745361328125
1701290247490158600,12.69315869140625,0.1494293212890625,0.961639404296875,0.27490234375
1701290247500234500,12.703234375,0.150726318359375,0.9420013427734375,0.2726593017578125
1701290247510309600,12.7133095703125,0.1650543212890625,0.9191131591796875,0.2823944091796875
1701290247520385500,12.723385498046875,0.18072509765625,0.9197235107421875,0.2994842529296875
1701290247530460700,12.733460693359374,0.1879730224609375,0.9294891357421875,0.309234619140625
1701290247540536600,12.74353662109375,0.1956939697265625,0.9371185302734375,0.3098297119140625
1701290247550612700,12.75361279296875,0.2010650634765625,0.942535400390625,0.298828125
1701290247560687600,12.7636875,0.2023773193359375,0.9479217529296875,0.276397705078125
1701290247570763500,12.773763427734375,0.194427490234375,0.968048095703125,0.2483978271484375
1701290247580838700,12.783838623046876,0.1669464111328125,1.0042572021484375,0.216949462890625
1701290247590914800,12.793914794921875,0.1189727783203125,1.0316009521484375,0.1774749755859375
1701290247600989700,12.80398974609375,0.0642242431640625,1.041015625,0.14483642578125
1701290247611065600,12.814065673828125,0.0250701904296875,1.0457000732421875,0.1315155029296875
1701290247621140700,12.824140625,0.02020263671875,1.0441741943359375,0.1361541748046875
1701290247631216600,12.834216552734375,0.0433197021484375,1.037384033203125,0.1591339111328125
1701290247641292500,12.84429248046875,0.07598876953125,1.027435302734375,0.2034912109375
1701290247651367700,12.85436767578125,0.099517822265625,1.0074615478515625,0.259246826171875
1701290247661443600,12.864443603515625,0.099090576171875,0.9773712158203125,0.30767822265625
1701290247671518500,12.8745185546875,0.079803466796875,0.9483489990234375,0.3576507568359375
1701290247681594600,12.8845947265625,0.065765380859375,0.928924560546875,0.40899658203125
1701290247691669800,12.894669677734376,0.0704345703125,0.927490234375,0.4519805908203125
1701290247701745400,12.904745361328125,0.1005096435546875,0.965850830078125,0.495697021484375
1701290247711820500,12.914820556640626,0.1506195068359375,1.0163421630859375,0.513946533203125
1701290247721896700,12.924896728515625,0.1910858154296875,1.0321044921875,0.50323486328125
1701290247731971600,12.9349716796875,0.2035064697265625,0.9977569580078125,0.482696533203125
1701290247742047500,12.945047607421875,0.191497802734375,0.95233154296875,0.4951629638671875
1701290247752123600,12.95512353515625,0.1571197509765625,0.9786834716796875,0.5329132080078125
1701290247762198800,12.96519873046875,0.0940704345703125,1.0489044189453125,0.5442352294921875
1701290247772274400,12.9752744140625,0.0199432373046875,1.115234375,0.5252227783203125
1701290247782349600,12.985349609375,-0.034332275390625,1.15667724609375,0.4811859130859375
1701290247792425700,12.99542578125,-0.047576904296875,1.16314697265625,0.447174072265625
1701290247802500600,13.00550048828125,-0.0352020263671875,1.1489715576171875,0.4312744140625
1701290247812576500,13.015576416015625,-0.0259246826171875,1.1295013427734375,0.4044647216796875
1701290247822651600,13.025651611328126,-0.0362091064453125,1.1093292236328125,0.36407470703125
1701290247832727600,13.0357275390625,-0.0727691650390625,1.0844573974609375,0.301422119140625
1701290247842803700,13.0458037109375,-0.1245269775390625,1.0537109375,0.23748779296875
1701290247852878600,13.055878662109375,-0.1688690185546875,1.0420379638671875,0.1788177490234375
1701290247862954500,13.06595458984375,-0.19012451171875,1.048431396484375,0.128082275390625
1701290247873029600,13.076029541015625,-0.1678009033203125,1.0370330810546875,0.114166259765625
1701290247883105500,13.08610546875,-0.11712646484375,1.0135498046875,0.1245269775390625
1701290247893180700,13.0961806640625,-0.0619354248046875,0.992828369140625,0.161865234375
1701290247903256600,13.106256591796875,0.002593994140625,0.98822021484375,0.21441650390625
1701290247913331500,13.11633154296875,0.09747314453125,0.994415283203125,0.248504638671875
1701290247923407600,13.12640771484375,0.2096099853515625,0.9988555908203125,0.2696075439453125
1701290247933482800,13.136482666015626,0.2627716064453125,0.9887847900390625,0.2747344970703125
1701290247943558700,13.14655859375,0.261016845703125,0.978057861328125,0.25262451171875
1701290247953634600,13.156634521484374,0.2598876953125,0.98004150390625,0.239532470703125
1701290247963709700,13.166709716796875,0.2398834228515625,0.9990997314453125,0.2126007080078125
1701290247973785600,13.17678564453125,0.1904754638671875,1.0468902587890625,0.187744140625
1701290247983860700,13.18686083984375,0.1416473388671875,1.099456787109375,0.1833343505859375
1701290247993936600,13.1969365234375,0.054107666015625,1.13922119140625,0.1798095703125
