time,seconds_elapsed,z,y,x
1701290234852909600,0.05590966796875,-0.050210430324077605,0.019922259566187858,0.15839491071105002
1701290234862985500,0.0659853515625,0.02712649185657501,0.005223872128129005,0.10098550879359244
1701290234873060400,0.076060302734375,0.0640004707455635,-0.011005670399963856,0.040110476592183114
1701290234883136500,0.086136474609375,0.04968260705769062,-0.0704103377878666,0.10254910484850406
1701290234893211600,0.096211669921875,0.04314297615587711,-0.17243015806525944,0.16480653131902218
1701290234903287300,0.106287353515625,0.025378186884522435,-0.23205869733691215,0.11633563813865185
1701290234913362400,0.116362548828125,-0.040135026511549945,-0.2363283374801278,0.14453531218469143
1701290234923438600,0.1264384765625,-0.020012275937199592,-0.27898440690189596,0.17793840009272097
1701290234933513500,0.136513427734375,0.055286418414115905,-0.36197131766825913,0.12244622997343539
1701290234943589400,0.14658935546875,0.15125088417530058,-0.43984307737797496,0.004402034351229668
1701290234953664500,0.15666455078125,0.18506021479666232,-0.7878110041350126,-0.19721184036135672
1701290234963740700,0.16674072265625,0.180228556856513,-0.20661241365224123,0.10847148063480853
1701290234973815600,0.176815673828125,-0.024145722480118273,-0.2344888470932841,0.12978607134222983
1701290234983891500,0.186891357421875,-0.16239567078500985,-0.29448680419921874,0.1076151560664177
1701290234993967600,0.196967529296875,-0.11714812356531619,-0.20178426284343004,0.15179741214215756
1701290235004042500,0.20704248046875,-0.04246025458872318,-0.25293255853950974,0.1736976937830448
1701290235014118400,0.217118408203125,0.058902563084661956,-0.19754618688225745,0.10424129571914673
1701290235024193500,0.227193603515625,0.10253273823559284,-0.19309037651717662,0.037350948750972744
1701290235034269700,0.237269775390625,0.08989362141489982,-0.22301263657212256,-0.0087140523314476
1701290235044344300,0.24734423828125,0.0568681346476078,-0.4222720571130514,-0.02040799725651741
1701290235054420500,0.25742041015625,-0.250298702904582,-0.7135071660399437,0.014497896429896354
1701290235064495600,0.26749560546875,-0.14726765975803136,-0.24105156660974025,-0.05921382099092006
1701290235074571300,0.2775712890625,0.250587748979032,-0.2760796253710985,-0.1040197619229555
1701290235084646400,0.287646484375,0.32655016793608665,-0.4197404928088188,-0.05081657952368259
1701290235094722600,0.29772265625,0.24699615422785282,-0.34300212104320527,0.044213235735893246
1701290235104798500,0.307798583984375,0.07683511013835669,-0.15591127720177173,0.16972762110829354
1701290235114873300,0.317873291015625,-0.2699269479602575,-0.13663549884557724,0.30911154187917705
1701290235124949500,0.327949462890625,-0.4139358981832862,-0.02536415835916996,0.23833763147592543
1701290235135024600,0.338024658203125,-0.26082243500649926,0.16078560523986815,0.08891454724967479
1701290235145100500,0.3481005859375,-0.11648206087201833,0.1093091005027294,0.06745382606983184
1701290235155175400,0.358175537109375,0.01019289271235466,0.02815700394809246,0.06080021339952946
1701290235165251600,0.36825146484375,0.13013327734470367,-0.2385655950129032,-0.07114508180320263
1701290235175326500,0.378326416015625,0.18641046036183834,-0.49323242999911304,-0.14971885230243206
1701290235185403000,0.38840283203125,0.2241451477333903,-0.5570639739185571,-0.020667524975538254
1701290235195477800,0.398477783203125,0.1863555153042078,-0.8125462169408798,0.1078501338660717
1701290235205553700,0.4085537109375,0.10486585735827683,-0.7484510536491871,0.017167992421984673
1701290235215629800,0.4186298828125,0.08493132283240556,-0.7088578789293766,-0.19293723178207872
1701290235225705000,0.428705078125,0.33889877737760543,-0.9205646931111812,-0.6201414846003055
1701290235235780600,0.438780517578125,0.8005231861919164,-1.2333756740301847,-1.0877584118276833
1701290235245855700,0.448855712890625,0.8447969199433922,-1.456027076074481,-1.2235177123606205
1701290235255932000,0.458931884765625,0.4870677698895335,-1.6117857930630444,-1.2352210096359253
1701290235266006800,0.4690068359375,0.09634922729507088,-1.474544729539752,-0.8885118507683276
1701290235276082700,0.479082763671875,0.12786021784618495,-1.418105633959174,-0.5487760380446911
1701290235286157800,0.48915771484375,0.28302389155104757,-1.0076865117251872,-0.5325146390736103
1701290235296234000,0.49923388671875,0.37361528597176075,-0.6392413218677043,-0.7711679123699665
1701290235306308900,0.509308837890625,0.3361522551484406,-0.28898353060781956,-0.8318938914895058
1701290235316384800,0.519384765625,0.2962257568210363,-0.44700434730947014,-0.8720721726208924
1701290235326461000,0.5294609375,0.390507968583703,-0.7006798331707715,-0.9642623805403708
1701290235336535800,0.539535888671875,0.5772054291933775,-0.7956365831941365,-1.233725802642107
1701290235346611700,0.54961181640625,1.7970049978137015,-0.6544014815986156,-1.387939043754339
1701290235356686800,0.559686767578125,1.7413316259086131,-0.5841629932463169,-1.3573691334456204
1701290235366762800,0.5697626953125,0.3442285210330039,-0.2446352703154087,-1.2493103252649307
1701290235376837600,0.579837646484375,-0.9698883306633681,0.014538812962174415,-1.0342249745607375
1701290235386913800,0.589913818359375,-1.817327070352435,0.2775011826068163,-0.8182908980727195
1701290235396989000,0.599989013671875,-2.133570948329568,0.43477030415832996,-0.5606202050954103
1701290235407064800,0.61006494140625,-1.9168389994621275,0.16113573385179042,-0.3664093001157045
1701290235417139700,0.6201396484375,-1.4125550140947103,-0.5348796146392822,-0.4694190082132816
1701290235427216000,0.6302158203125,-0.8731996422808617,-1.1261720213741064,-0.7324497669190168
1701290235437291800,0.640291748046875,-0.25113281564116474,-1.0849866090267897,-0.7898913175404071
1701290235447366700,0.65036669921875,0.1387368550390005,-0.46573593578636646,-0.7791577420800924
1701290235457442800,0.66044287109375,0.3451876483887434,0.5699965207278728,-0.9202110573679209
1701290235467518000,0.67051806640625,0.5955044714719057,1.2603028439223765,-0.530168952730298
1701290235477593900,0.68059375,0.2425081951588392,0.4979331550359726,0.42270986400842664
1701290235487668700,0.690668701171875,0.5787322003692388,0.047259763824939724,0.7454860663637518
1701290235497745000,0.700744873046875,0.5005529821455479,0.9910317295223474,2.672344940058887
1701290235507819800,0.71081982421875,-0.10257657737731933,1.8962264195442198,4.766351355241238
1701290235517896000,0.72089599609375,-0.559095187485218,1.449857447528839,4.95873358348906
1701290235527970800,0.730970703125,-0.7564040584802627,0.7215291444540023,4.375889271625876
1701290235538046700,0.741046630859375,-0.5189233360946178,0.7031698964208364,3.9112262257680293
1701290235548123000,0.751122802734375,0.10875729357255622,1.3569886096954344,3.182852914507687
1701290235558197800,0.76119775390625,0.38998365244865413,1.6624837146431206,1.5395131685346364
1701290235568273700,0.771273681640625,0.07694178538322448,1.307255149233341,0.04260024758130312
1701290235578348800,0.781348876953125,-0.23090949076917022,1.1060843421131372,-0.9272732508391142
1701290235588425000,0.791425048828125,-0.4385855150649324,1.1286726060181855,-1.172626314035058
1701290235598499800,0.801499755859375,-0.4987748665571212,1.5511837325841187,-0.7888046913474798
1701290235608575700,0.81157568359375,-0.6043220207104459,1.8546230740457772,-0.30993045704662797
1701290235618651000,0.82165087890625,-0.624312632805109,1.965703275874257,-0.031190088033676146
1701290235628726800,0.831726806640625,-0.4979881000936031,2.345691019487381,0.5139964010864496
1701290235638802000,0.841802001953125,-0.40407413712143897,2.665731367138028,1.0606612921960652
1701290235648877800,0.8518779296875,-0.27292614804254844,2.7511381985276935,1.4061223506987095
1701290235658954000,0.8619541015625,-0.24857379707442595,2.2854823422402144,1.2422538308821618
1701290235669028900,0.87202880859375,-0.21908817487107587,1.621065078061819,0.7451596108883619
1701290235679104800,0.882104736328125,-0.17008070886228233,1.0118342790544033,0.1910819593042135
1701290235689180000,0.892179931640625,-0.1437818634688854,0.43925007992088794,-0.23729411377236245
1701290235699255800,0.902255859375,-0.04219077173126861,-0.49188627608716484,-0.8188041082918643
1701290235709330700,0.91233056640625,0.03987257618308067,-1.753152412083745,-1.374685740558058
1701290235719406800,0.92240673828125,0.057036476951837535,-2.8138416152000425,-1.6143407382428645
1701290235729482000,0.93248193359375,0.40588966211080546,-3.392492567026615,-1.5406239062555134
1701290235739557600,0.9425576171875,0.1291524496138096,-1.3695774576336144,0.042159810337424275
1701290235749633800,0.9526337890625,-0.16885551444888114,0.25151567747890946,0.9092300830177962
1701290235759709000,0.962708984375,-0.21381931282375008,0.5631769038408995,0.6302765096455812
1701290235769784800,0.972784912109375,-0.12698617495801298,0.3154658793419599,0.034601357781887054
1701290235779859700,0.982859619140625,-0.01654427103307098,-0.04860065703988075,-0.26544512637108564
1701290235789935900,0.992935791015625,-0.000798420368693769,-0.20240765543878078,-0.1936620389252901
1701290235800011000,1.003010986328125,-0.007710976236127316,-0.25790859338641164,0.06530044742822647
1701290235810086700,1.013086669921875,0.08819616984724998,-0.266927181622386,0.43328181916624303
1701290235820161800,1.023161865234375,0.22908234840724617,-0.33744799404740333,0.7584146676503122
1701290235830238000,1.033238037109375,0.150278203218244,-0.3855512229591608,0.9450549912452697
1701290235840312800,1.043312744140625,0.023206688064336775,-0.3104378220468759,1.0217039311617613
1701290235850388700,1.053388671875,-0.03538699173424393,-0.17900749062895774,0.8809320631638169
1701290235860463900,1.0634638671875,0.027140520381927487,-0.04910217682123184,0.6663099460572004
1701290235870539800,1.073539794921875,0.009671535719372331,0.1214613105893135,0.2558541450746357
1701290235880615700,1.08361572265625,-0.025086473928950727,0.13749357697963713,-0.13350143860355018
1701290235890690800,1.09369091796875,-0.04281739746332169,0.06421323671340942,-0.36056875739395616
1701290235900767000,1.10376708984375,-0.08036942174434661,0.04732406123280525,-0.5258547427929937
1701290235910841600,1.113841552734375,-0.02374327915906906,0.08186579778194426,-0.6059340955495834
1701290235920917800,1.123917724609375,0.06101473293304443,0.1280664079427719,-0.5078985226027667
1701290235930993000,1.133992919921875,0.07270042148642242,0.17675532778799533,-0.34415947438478467
1701290235941068800,1.14406884765625,-0.002498246556520462,0.12971417514979838,-0.18268997853398322
1701290235951143700,1.154143798828125,-0.038174028636887666,0.02965980972647667,-0.08240662666037678
1701290235961219800,1.1642197265625,-0.032456089381501074,-0.08043722628355025,-0.022656506835669277
1701290235971295000,1.174294921875,-0.009214439601637422,-0.12907412368059157,0.1060436689659953
1701290235981371000,1.184370849609375,-0.0661398939270526,-0.06737257752716541,0.35633038917183874
1701290235991446800,1.19444677734375,-0.05394793635196984,-0.056420975401997565,0.45531917119026183
1701290236001522000,1.20452197265625,-0.06974639398641884,-0.07900807026326656,0.5475023648470639
1701290236011597800,1.214597900390625,-0.07163556873388588,-0.10501520270109176,0.5960216272138059
1701290236021672700,1.224672607421875,-0.08615735749602317,-0.12474457004368304,0.5723784474283456
1701290236031748900,1.234748779296875,-0.12938512585852294,-0.13616437420248984,0.5866448731899261
1701290236041823700,1.24482373046875,-0.19773791006207464,-0.1463192729920149,0.632490678563714
1701290236051900000,1.25489990234375,-0.17335516395568848,-0.12682371440529822,0.6829619517810642
1701290236061974800,1.264974853515625,-0.08914671203773468,-0.10940905374586582,0.6548882422022521
1701290236072050700,1.27505078125,-0.011858853163197637,-0.10409633429050445,0.5635024825334548
1701290236082125800,1.285125732421875,0.040714251171611246,-0.11968377952277659,0.4163359450623393
1701290236092201700,1.29520166015625,0.010253756054118275,-0.1326449679046869,0.27509412146508694
1701290236102277600,1.305277587890625,-0.04211356004290282,-0.07370879481136798,0.22204642188847062
1701290236112352800,1.315352783203125,-0.05545702574066817,-0.005883797341585159,0.23054157077223061
1701290236122429000,1.325428955078125,-0.026283611291646955,-0.00761047500371933,0.22102906153947113
1701290236132503800,1.33550390625,0.02837148694898933,-0.029944471886754035,0.19592180055081843
1701290236142579700,1.345579833984375,0.04210778788924217,-0.1145820724695921,0.09651040920615196
1701290236152654800,1.35565478515625,0.004597849184274673,-0.18726327779889107,0.022084552166610955
1701290236162731000,1.36573095703125,-0.014642309869267046,-0.1444979027837515,0.03348141384124756
1701290236172806000,1.375805908203125,0.043719826195761556,-0.0357364992916584,0.08087854031026363
1701290236182881800,1.3858818359375,0.13872567605786024,0.01746609858572483,0.049085956338793035
1701290236192957000,1.39595703125,0.18004443246126173,0.03469488128423691,0.010575170028209686
1701290236203033000,1.406033203125,0.15840535903982816,0.009349427625536918,-0.04307356418147683
1701290236213108000,1.41610791015625,0.15877126974277198,-0.036734862679243085,-0.11589476250335573
1701290236223184000,1.426183837890625,0.1357435184419155,-0.033633974054455756,-0.09623685296177864
1701290236233260000,1.436260009765625,0.11908705573864281,-0.02404313888847828,-0.08439911565184592
1701290236243335000,1.4463349609375,0.13117591826543212,0.03428863857090473,-0.10383929078951477
1701290236253411000,1.4564111328125,0.12111753865294157,0.048335868623852724,-0.11982523382008076
1701290236263486000,1.46648583984375,0.0653506432455033,0.030002339553833007,-0.14918752190470694
1701290236273561900,1.476561767578125,0.011664645765349268,0.019650456887483597,-0.14421207157969473
1701290236283637000,1.486636962890625,0.018434505226463078,0.000020458266139030454,-0.11971271335631609
1701290236293713000,1.496712890625,0.07284194884896278,-0.001064998883008957,-0.0513303742647171
1701290236303788000,1.5067880859375,0.12172785257101058,-0.02668167069852352,-0.02377235912308097
1701290236313864000,1.516864013671875,0.09161445385813713,0.0013058219015598296,0.0003074585139751434
1701290236323938800,1.526938720703125,0.055018780453875656,0.02522854928076267,0.026572803496569392
1701290236334015000,1.537014892578125,0.033015038438513875,0.03199088302254677,0.09949453958347439
1701290236344090000,1.547090087890625,0.039618820617720485,0.01481178468465805,0.13939561120867727
1701290236354166000,1.557166015625,0.08687171631045638,-0.013843816435337065,0.1851492082543671
1701290236364242000,1.567241943359375,0.09134206665754317,-0.036789223214983936,0.20445523561835288
1701290236374317000,1.577317138671875,0.06566402004361152,-0.047965866267681116,0.18004925476685166
1701290236384393000,1.58739306640625,0.016539631390571595,-0.023882395368814466,0.12147650815844535
1701290236394467800,1.5974677734375,-0.08064414703249931,0.03164776867330074,0.09287541370466351
1701290236404544000,1.6075439453125,-0.13408705647177993,0.04803074819743633,0.1293191844828427
1701290236414619000,1.617618896484375,-0.10933248137831687,0.006418634870648384,0.19476883112341165
1701290236424695000,1.627695068359375,0.005364741903543472,-0.03887771992683411,0.20520824594274162
1701290236434770000,1.63777001953125,0.10185527736544608,-0.04849778118729591,0.1410936472982168
1701290236444845800,1.647845703125,0.06927636532187462,0.0046200610160827636,0.0741902947179973
1701290236454921000,1.6579208984375,-0.01681559878773987,0.033013211807608606,-0.030336978335678576
1701290236464997000,1.6679970703125,-0.03619483751840889,0.004734042784571647,-0.05799976902604103
1701290236475072800,1.67807275390625,0.010288754302263258,-0.028265725019574164,-0.08395239479765296
1701290236485148000,1.68814794921875,0.07479410583004355,-0.019040800556540487,-0.09840864404290914
1701290236495224000,1.69822412109375,0.08911145806126296,0.07103168455660343,-0.0936449367724359
1701290236505299000,1.708298828125,-0.014200374788045882,0.07402677471935748,-0.09473083231300115
1701290236515374800,1.718374755859375,-0.1326198334634304,-0.024370471146702766,-0.10558438089117407
1701290236525450000,1.728449951171875,-0.13425649475455284,-0.059687283721566196,-0.09557122865989803
1701290236535526100,1.738526123046875,-0.01797280599884689,0.0043622868627309795,-0.054888797398656604
1701290236545600800,1.748600830078125,0.09530980124473572,0.05943710835278034,0.0002969371199607849
1701290236555677000,1.758677001953125,0.13385543967299163,0.06317395679354668,0.04713716035857796
1701290236565752000,1.768751953125,0.14730769950747488,-0.016110007801651952,0.08404767186567187
1701290236575827700,1.77882763671875,0.1243419075269252,-0.12526713261306285,0.08974003828838467
1701290236585902800,1.78890283203125,0.20551095521636306,-0.174025610563159,0.10177242138758301
1701290236595979000,1.79897900390625,0.2880840244848281,-0.1487450388342142,0.13809388096034525
1701290236606055000,1.809054931640625,0.2642272750139236,-0.07771393879950046,0.17009645442068574
1701290236616129800,1.8191298828125,0.10462013896889984,0.03224105839133262,0.13200667000114916
1701290236626206000,1.8292060546875,-0.1353951433956623,0.1216051029741764,0.022944822257757187
1701290236636281000,1.839281005859375,-0.33738252759575843,0.15212708248794077,-0.1335109370842576
1701290236646357000,1.84935693359375,-0.4188168751578778,0.14845219336748122,-0.18558555384501813
1701290236656431900,1.859431884765625,-0.32345914311818774,0.12668284462988375,-0.17819412841945886
1701290236666508000,1.869508056640625,-0.1500432619512081,0.07974398332238197,-0.1012106958515942
1701290236676583200,1.879583251953125,-0.015458265894651413,-0.02054945155382156,-0.012060001758486032
1701290236686658800,1.889658935546875,0.052612815290689466,-0.10316226831078529,0.03448620696961879
1701290236696734000,1.89973388671875,0.06734050188846885,-0.13897767805755137,0.043319209505617615
1701290236706810000,1.90981005859375,0.0515220974445343,-0.12742051125466822,0.03790127611011267
1701290236716886000,1.919885986328125,0.03685410514473915,-0.12385317416191101,0.08591565769463777
1701290236726961000,1.9299609375,0.09281732684187591,-0.0983516531586647,0.16427768513932822
1701290236737037000,1.940037109375,0.1540249519985169,-0.05724222865700721,0.2430091304183006
1701290236747112000,1.95011181640625,0.17111987918429075,-0.06796060654819011,0.2751782926172018
1701290236757187800,1.960187744140625,0.1453074656009674,-0.07438859376907349,0.2588714470691979
1701290236767263000,1.970262939453125,0.0769229345522821,-0.10079787726700305,0.19415727509632705
1701290236777339000,1.9803388671875,0.0395838223695755,-0.0838514186412096,0.14130597487464547
1701290236787413800,1.990413818359375,0.03424487249441445,-0.005315057542920112,0.07796075316742063
1701290236797490000,2.000489990234375,0.05698262787275016,0.01128653316795826,-0.0007990414232015609
1701290236807565000,2.01056494140625,0.02585683724693954,0.02073357594907284,-0.10138327593952416
1701290236817641000,2.020640869140625,-0.037564810697361825,0.028950784674286842,-0.18142828803509473
1701290236827715800,2.0307158203125,-0.07076097785644232,0.0026420389413833617,-0.18154796889200805
1701290236837792000,2.0407919921875,-0.04390219702534377,-0.005206336471438407,-0.16073782057538627
1701290236847868000,2.050867919921875,0.05304298686888068,-0.0065332011610269546,-0.14542919228449463
1701290236857943000,2.060943115234375,0.1616506976366043,-0.029804186633229254,-0.09717471833378076
1701290236868019000,2.07101904296875,0.20517766814138738,-0.07471592602729797,-0.05781389106512069
1701290236878094000,2.081093994140625,0.23310959462933242,-0.09943360317647457,-0.015429039800167082
1701290236888170000,2.091169921875,0.15975333958268165,-0.12806757698655127,0.011670417919009923
1701290236898244900,2.101244873046875,0.0923649799644947,-0.1040676927179098,0.046127837185561654
1701290236908321000,2.111321044921875,0.050548247443698346,-0.05972293955683708,0.061206017721444364
1701290236918396000,2.12139599609375,0.04358892982508987,-0.04828735330700874,0.07781842208728194
1701290236928472000,2.13147216796875,0.04705985733866691,-0.06739245127141476,0.08916720683649182
1701290236938547000,2.141546875,0.08261522790975868,-0.08503039929270743,0.08448723232671618
1701290236948622800,2.151622802734375,0.08720715880990028,-0.11498130092024803,0.07224573652148246
1701290236958698000,2.161697998046875,0.05066051217913627,-0.10486322700977325,0.03850391817837953
1701290236968774000,2.17177392578125,0.01726217351146042,-0.08708557825684547,0.0488771358937025
1701290236978849800,2.181849853515625,-0.01480827755331993,-0.011064999371767043,0.0399747213833034
1701290236988925000,2.191925048828125,-0.03817278652787209,0.06333177770376205,0.06282879661768674
1701290236999001000,2.2020009765625,-0.03116323655936867,0.06328910760581492,0.0828610924296081
1701290237009076000,2.212075927734375,-0.034929859083890916,-0.016522680255770684,0.11790186454206704
1701290237019152000,2.22215185546875,-0.015154314512014388,-0.06338146206438541,0.16955898654311893
1701290237029227000,2.23222705078125,0.022557868766784665,-0.049397360375523565,0.20981384004205464
1701290237039303200,2.24230322265625,0.014743980145454406,0.05333060817122459,0.15965484764426946
1701290237049377800,2.252377685546875,-0.07321140321586281,0.0870364784181118,0.07854352149143815
1701290237059454000,2.262453857421875,-0.19531557828597723,0.0565109917730093,0.01818885990232229
1701290237069529000,2.272529052734375,-0.2783165175776928,-0.00022854805886745453,0.046512160328030586
1701290237079605000,2.28260498046875,-0.24021277769804,-0.07532675140202046,0.05434343847557902
1701290237089681000,2.292680908203125,-0.17086743879318236,-0.06427285794615745,0.06998918976634741
1701290237099756000,2.302756103515625,-0.08998013065457343,-0.03913140242695808,0.1199605506375432
1701290237109832000,2.31283203125,-0.040875652278400953,-0.03575228138267994,0.13353344117701052
1701290237119906800,2.32290673828125,-0.032380211133696137,-0.04538812473416328,0.10805822365880012
1701290237129983000,2.33298291015625,-0.060113400179147715,-0.10951777481734752,0.025913024413585662
1701290237140058000,2.34305810546875,-0.0867441444080323,-0.1709615468174219,-0.02762070511430502
1701290237150133800,2.3531337890625,-0.10649755021333694,-0.1261532677978277,-0.05825739704892039
1701290237160209000,2.363208984375,-0.1405622438352555,-0.04606909273564815,-0.06725508862733841
1701290237170285000,2.37328515625,-0.1699684441268444,0.01990998460650444,-0.0944536228068173
1701290237180360000,2.38335986328125,-0.13328973208162934,0.042592356535792346,-0.12129647541642188
1701290237190436000,2.39343603515625,-0.06976378351263701,0.02076514013111591,-0.1609115697070956
1701290237200511200,2.40351123046875,-0.0032721535384654995,0.014565116447210312,-0.1864608753748238
1701290237210587100,2.413587158203125,0.010549524130299687,-0.018702946904301642,-0.165714147683233
1701290237220663300,2.423663330078125,-0.07877367698550224,-0.08988017741143703,-0.12090659931600094
1701290237230738200,2.43373828125,-0.12387180579714477,-0.12738427089750767,-0.034927520996332166
1701290237240814300,2.443814453125,-0.02518697516135871,-0.08293781092762946,0.05928001809492707
1701290237250889200,2.45388916015625,0.14193009812235832,0.0968354033768177,0.18499430995360017
1701290237260965000,2.463965087890625,0.2105705036282539,0.15066460871994494,0.23806071423068642
1701290237271040300,2.474040283203125,0.20081366424560546,0.011202946537733077,0.20415596041083334
1701290237281116200,2.4841162109375,0.09926241132803261,-0.1339402684122324,0.1427184720210731
1701290237291191000,2.49419091796875,0.016018201332353054,-0.14195289447605608,0.06116773153766989
1701290237301267200,2.50426708984375,0.007066869646310806,-0.06927168914675712,-0.006588292349129915
1701290237311342300,2.51434228515625,-0.01897708767056465,-0.040082419541478155,-0.11369418371915817
1701290237321418200,2.524418212890625,-0.0664321183392778,-0.027172084563970564,-0.14452522918209432
1701290237331493000,2.5344931640625,-0.05994622691869735,-0.03509294069111347,-0.13023089250028133
1701290237341569300,2.5445693359375,-0.006019333354756236,-0.06548690991103649,-0.0642819180354476
1701290237351645200,2.554645263671875,-0.0315536606490612,-0.09763912097513675,-0.02516658996045589
1701290237361720000,2.564719970703125,-0.10095737867765128,-0.15388707789778708,0.03641527533605694
1701290237371796200,2.574796142578125,-0.13014379873871804,-0.12252923208177088,0.1303171094790101
1701290237381871000,2.58487109375,-0.10282317254953086,0.04782148936092853,0.27624942898005245
1701290237391947300,2.594947265625,-0.10433598826527594,0.21367197677493094,0.45341757535263894
1701290237402022100,2.605022216796875,-0.14110117301754652,0.19285773680508136,0.5562703393228352
1701290237412098000,2.61509814453125,-0.10146481674313544,-0.01428805307149887,0.5307409073993563
1701290237422173200,2.625173095703125,-0.00337382381465286,-0.1398357561916113,0.4790045826822519
1701290237432249300,2.635249267578125,0.0006488192975521087,-0.03261807501018047,0.37339521348029375
1701290237442324200,2.64532421875,-0.033839141237735744,0.12152677704095839,0.26217969483435155
1701290237452400000,2.655400146484375,-0.17363810908291488,0.20741525446772574,0.07108063826486467
1701290237462475300,2.665475341796875,-0.33519415070600805,0.19823884532153604,-0.12364888376146554
1701290237472551200,2.67555126953125,-0.3491138819217682,0.07972820123136043,-0.26473113288283345
1701290237482627000,2.685626953125,-0.21662965753674507,-0.0433393755108118,-0.29171383235454557
1701290237492702200,2.6957021484375,-0.04069437742736191,-0.07672025158703327,-0.29385113664418455
1701290237502778400,2.7057783203125,0.09684475572705269,-0.025749358284473417,-0.367978741389513
1701290237512853200,2.715853271484375,0.11451255089733749,0.052857729962468146,-0.3907824016109109
1701290237522929200,2.72592919921875,0.08321257274840027,0.13169687339961528,-0.3549811665199697
1701290237533004300,2.73600439453125,-0.0463934658518061,0.088940266212821,-0.29548589823916555
1701290237543080200,2.746080078125,-0.12540800238847732,-0.12164952663779258,-0.2055240338936448
1701290237553155000,2.756155029296875,-0.0681003072798252,-0.19094518118202686,-0.15656374976113438
1701290237563231200,2.766231201171875,0.1256394365241751,-0.06102759241461753,-0.14829115758687256
1701290237573306000,2.77630615234375,0.1734721048662439,-0.02593406720161438,-0.11257029425576329
1701290237583382000,2.786382080078125,0.08484806499574334,-0.033657939451932906,-0.011058277370035648
1701290237593457200,2.79645703125,0.004561645359732211,-0.03634849371016025,0.04835895723849535
1701290237603533300,2.806533203125,0.020258359652757643,-0.027854806131124496,0.09255056566447019
1701290237613609200,2.816609130859375,0.04572944898512214,-0.06023673429787159,0.17153920057490468
1701290237623684000,2.82668408203125,0.09674648298434912,-0.08894260430037974,0.24111630240902304
1701290237633760300,2.83676025390625,0.12768646871447561,-0.15674831254780291,0.3289472922056913
1701290237643835400,2.84683544921875,0.09606730508115142,-0.24129589675962923,0.3579103518396616
1701290237653911000,2.8569111328125,0.023241722845099864,-0.24107377844154834,0.31135815176218745
1701290237663986200,2.866986083984375,-0.05007595375683158,-0.17717793711423874,0.18997122158333657
1701290237674062300,2.877062255859375,-0.12674535193946213,-0.03184299898445606,0.1252040042489767
1701290237684137200,2.88713720703125,-0.20345442454535512,0.1544967342287302,0.14543664493858813
1701290237694213000,2.897213134765625,-0.29779402905106545,0.1752139435648918,0.16728914191499353
1701290237704288300,2.907288330078125,-0.32966102996561675,0.07238251464366913,0.21054025462046264
1701290237714364400,2.917364501953125,-0.23806995698306707,-0.018051789519190786,0.23213921522721648
1701290237724439000,2.92743896484375,-0.09157941907737403,-0.08406827626228332,0.17757833460867403
1701290237734515200,2.93751513671875,0.0715770069470629,-0.0337234059035778,0.09709376205205916
1701290237744591400,2.94759130859375,0.19472177711129188,0.06807283475100993,-0.0881409325286746
1701290237754666000,2.957666015625,0.16957330732941628,0.15820084944367407,-0.3179888219483197
1701290237764742100,2.9677421875,0.000619629735685885,0.16887655723690986,-0.5434456368021666
1701290237774817300,2.9778173828125,-0.17557167096138,0.11895078907310962,-0.5901416292645036
1701290237784893200,2.98789306640625,-0.28228195060994477,0.07355214294493198,-0.47702743739038705
1701290237794968000,2.997968017578125,-0.19030041700508443,0.033791794964671135,-0.273690538277477
1701290237805044200,3.008044189453125,0.0052198170075193045,0.025409166544675826,-0.09552592821344733
1701290237815119400,3.018119384765625,0.13411270236968995,-0.001319265905022621,-0.055916094619780775
1701290237825195300,3.0281953125,0.13341357765700668,-0.01955927147269249,-0.18178952256292102
1701290237835270100,3.038270263671875,0.06851886148545891,0.04854688102602958,-0.2969277676105499
1701290237845346300,3.04834619140625,-0.008594846398569642,0.17735154011547563,-0.33325945631638165
1701290237855421200,3.058421142578125,-0.025982034529186782,0.21718027715682983,-0.30678967480286956
1701290237865497000,3.0684970703125,0.0849532424032688,0.0835901373565197,-0.29811829256936906
1701290237875573200,3.0785732421875,0.24957451681587844,-0.07784662526845931,-0.37435719038024545
1701290237885648100,3.088648193359375,0.36009354109764097,-0.14448971947729586,-0.49258945592045783
1701290237895724300,3.098724365234375,0.3772118491590023,-0.14580255564153194,-0.5568840873070061
1701290237905799200,3.108799072265625,0.28660047139618544,-0.09309797041416168,-0.5854566863186657
1701290237915875000,3.118875,0.18556812778618187,-0.07156652208566665,-0.5551182466782629
1701290237925950200,3.1289501953125,0.14734857950713484,-0.10643091471791266,-0.4149981205873191
1701290237936026000,3.139026123046875,0.16597027786877006,-0.10061609095931053,-0.24629092856794593
1701290237946101200,3.149101318359375,0.16279866209533064,0.003922726401686668,-0.11565233204960822
1701290237956177200,3.15917724609375,0.09309095615148544,0.09660685531795024,-0.07588833080753683
1701290237966252000,3.169251953125,-0.028147103608585893,0.11369652180671691,-0.08860796551853418
1701290237976328200,3.179328125,-0.11304890808556228,0.08248188385367393,-0.0930265126131475
1701290237986403300,3.1894033203125,-0.07200608254671097,0.10412380681931972,-0.04575988065600395
1701290237996479200,3.199479248046875,-0.01406122204568237,0.06969722108244895,0.03637158232480287
1701290238006554000,3.20955419921875,0.023763152903318405,-0.06843757641017437,0.14370426818802953
1701290238016630300,3.21963037109375,0.11363342997524886,-0.21952654802203178,0.2569010237790644
1701290238026706200,3.2297060546875,0.2237386127591133,-0.27865736690461634,0.3540655129797756
1701290238036781300,3.23978125,0.2964145939240232,-0.23360125060379502,0.3747052731655538
1701290238046857200,3.249857177734375,0.28458613589908927,-0.15996259841918944,0.3297371274091303
1701290238056932000,3.25993212890625,0.18118308110237122,-0.0812543878853321,0.2596330790914595
1701290238067008300,3.27000830078125,0.051469527007080615,-0.01840191813111305,0.2091660436578095
1701290238077083100,3.280083251953125,0.008342332942225038,0.008875964894890785,0.2004635356336832
1701290238087159000,3.290158935546875,0.08974047667980194,0.04350596424937248,0.11447831983417271
1701290238097234200,3.300234130859375,0.17614336990211157,0.014908815318346022,0.03269377059489489
1701290238107310300,3.310310302734375,0.21630700145363807,-0.05584288325309753,-0.026376696402579544
1701290238117385200,3.32038525390625,0.1896048359563574,-0.1255138008505106,-0.03271802825331688
1701290238127461000,3.330461181640625,0.14685173590090125,-0.1299099899828434,-0.029068565835058686
1701290238137536300,3.340536376953125,0.17896416294388473,-0.1039981346130371,-0.017649784589558837
1701290238147612200,3.350612060546875,0.27622984749674795,-0.14647767842411993,0.0022312661834061145
1701290238157687300,3.360687255859375,0.36791444398164747,-0.1542792920857668,-0.00619987755343318
1701290238167763200,3.37076318359375,0.39588841951303183,-0.13161620937883853,-0.0010907178461551665
1701290238177839400,3.38083935546875,0.35990645756032313,-0.040022213786840434,-0.018304449106007814
1701290238187914000,3.3909140625,0.24299627093672752,0.017681202641129493,-0.07231865562722087
1701290238197990000,3.400989990234375,0.07495791808962822,0.04732289218902588,-0.11465996001139282
1701290238208065000,3.41106494140625,-0.09534253447055815,0.05538286452591419,-0.12031944707781075
1701290238218141000,3.421140869140625,-0.16556465620994568,0.05413900194466114,-0.06323167833015322
1701290238228215800,3.4312158203125,-0.15817513048052786,0.07395897018015385,-0.03078048431947827
1701290238238292000,3.4412919921875,-0.125056120210886,0.09157587541341781,-0.008620967220515013
1701290238248366800,3.451366943359375,-0.09011573973298072,0.06629471916258335,-0.026191256833076475
1701290238258442800,3.46144287109375,-0.09829320096969604,0.09642097735702991,-0.09171586840599774
1701290238268518000,3.471517822265625,-0.14157120168209075,0.07920973031520843,-0.16833528996706007
1701290238278594000,3.481593994140625,-0.18770992558784783,-0.014388590836524962,-0.17862696687877178
1701290238288669000,3.4916689453125,-0.10579254374913871,-0.07067220359444618,-0.11124211439192294
1701290238298744800,3.501744873046875,0.07437686679866165,-0.05321545735895633,-0.027572335927933452
1701290238308821000,3.511821044921875,0.21471710191369056,-0.018128946408629415,0.0044756841093301775
1701290238318896000,3.521896240234375,0.29680384896993633,-0.028754969841241835,-0.006872369987517595
1701290238328971800,3.5319716796875,0.27650102912094443,-0.012886954101920128,-0.11504545219764113
1701290238339047000,3.542046875,0.1646926226157695,-0.04023030357956886,-0.207202196238935
1701290238349123000,3.552123046875,0.06309102775044739,-0.05519289491176605,-0.25458383287787434
1701290238359198000,3.562197998046875,0.03952887731194496,-0.018469722670316695,-0.26157047689482565
1701290238369273900,3.57227392578125,0.043113238604739305,0.06367898370623588,-0.2660774329252541
1701290238379349000,3.582348876953125,0.027086744368076322,0.1449111597597599,-0.22941227448135612
1701290238389425200,3.592425048828125,0.0355926703741774,0.16970131762325763,-0.17607567496076226
1701290238399499800,3.602499755859375,0.06446458112597465,0.1236398236721754,-0.17570713390931486
1701290238409576000,3.612575927734375,0.13423201790042222,0.03599602701067924,-0.17223127449229358
1701290238419651000,3.622651123046875,0.1690706185042858,-0.015384031614661215,-0.18019640815258026
1701290238429726700,3.632726806640625,0.1963502185633406,0.04490647869706153,-0.128411275857687
1701290238439803000,3.642802978515625,0.19017781353872268,0.16430150440633295,-0.06806479757502674
1701290238449878000,3.6528779296875,0.09303948169257491,0.24331600441038606,0.016655074463784694
1701290238459954000,3.662953857421875,-0.06779752494096755,0.2414852818518877,0.06130538644269108
1701290238470028800,3.67302880859375,-0.17451828945092857,0.1477636265814304,0.0842260971724987
1701290238480105000,3.68310498046875,-0.21646825642995535,0.03984218104481697,0.11789236606135964
1701290238490180000,3.69318017578125,-0.19097849892973898,-0.026325112345814704,0.1723671758316457
1701290238500256000,3.703256103515625,-0.09648585928678512,-0.02416588848531246,0.20359788813665508
1701290238510331000,3.713330810546875,-0.04841013943646103,-0.007864157503843307,0.1881080580599606
1701290238520407000,3.723406982421875,-0.058457997654937206,-0.04522036695182323,0.16120602260902522
1701290238530482200,3.733482177734375,-0.063682490837574,-0.09151800774633884,0.10608677745535969
1701290238540557800,3.743557861328125,-0.06656071315500885,-0.037656069177389145,0.07077814818695187
1701290238550633000,3.753633056640625,-0.06526428013630212,-0.004674421551823616,0.1074140805363655
1701290238560709000,3.763709228515625,-0.04749474162459373,-0.06337269423604011,0.2277089776948094
1701290238570783700,3.77378369140625,-0.039443500583432614,-0.12982815691828728,0.3546912436626851
1701290238580860000,3.78385986328125,-0.00527940170764923,-0.1781330458819866,0.4362364311881363
1701290238590936000,3.79393603515625,0.062083238947391504,-0.14919336712360382,0.4796234452329576
1701290238601011000,3.804010986328125,0.05840780183766037,-0.08334989885985851,0.5115738501146435
1701290238611086800,3.8140869140625,0.03137015730831772,-0.06647182929515838,0.546808537364006
1701290238621162000,3.824161865234375,-0.015981997507810593,-0.1361930157750845,0.5975216565132141
1701290238631238000,3.83423779296875,-0.02971241669654846,-0.18315934961140154,0.6226587281182407
1701290238641312800,3.844312744140625,-0.04930089599741622,-0.09198328717052937,0.6470655857525766
1701290238651389000,3.854388916015625,-0.07992752319574356,0.12117664842903614,0.6822961813487112
1701290238661464000,3.864464111328125,-0.2374853985607624,0.21632336806654928,0.7106684354826808
1701290238671540000,3.8745400390625,-0.4968050277888775,0.1023340007930994,0.814468709436059
1701290238681614800,3.88461474609375,-0.6821884831905365,0.03587327741384506,0.8801742305338383
1701290238691691000,3.89469091796875,-0.7118097144722938,0.07467910114824772,0.9188821468517183
1701290238701766000,3.904765869140625,-0.6365577818721533,0.2419423779696226,0.904205386723578
1701290238711842000,3.914842041015625,-0.6316331849515437,0.3096720983713865,0.7900178665295243
1701290238721918000,3.92491796875,-0.8251841647177934,0.13295476450622082,0.5912498827673495
1701290238731992800,3.934992919921875,-1.1212187828809022,-0.129272861123085,0.4364345841087401
1701290238742069000,3.945069091796875,-1.3948212044835089,-0.28596915122270583,0.44590120837315916
1701290238752144000,3.955143798828125,-1.596905619317293,-0.1764770953685045,0.5857371106952428
1701290238762220000,3.965219970703125,-1.648113243985176,0.04743336682617664,0.7997318896837532
1701290238772295000,3.975294921875,-1.5853975523531436,0.2650684020131826,1.058312537112832
1701290238782371000,3.98537109375,-1.511854177236557,0.3594558277159929,1.2516286852099001
1701290238792446000,3.995446044921875,-1.367245215293765,0.34740123278498647,1.336159172156453
1701290238802521900,4.00552197265625,-1.1503981156140566,0.27082886523604394,1.4695477980352938
1701290238812597000,4.015596923828125,-0.9785610280711203,0.2104980229139328,1.7456927437275647
1701290238822673000,4.0256728515625,-0.6898754574965685,0.1265980889558792,2.090675809454918
1701290238832748000,4.035748046875,-0.10450834915749728,-0.08828793978393078,2.2105185789316892
1701290238842824000,4.045823974609375,0.5175286668658257,-0.2122925051152706,1.9755358108416199
1701290238852898800,4.05589892578125,0.8813533573158084,-0.12851824336349962,1.5460013615101575
1701290238862975000,4.06597509765625,0.6906336554527283,0.030116905844211575,1.0275272304877638
1701290238873051000,4.07605078125,0.5039128139674663,0.14806290178894996,0.2520622054457664
1701290238883126000,4.0861259765625,0.5335311226397752,0.41943303429484363,-0.5212471028670669
1701290238893202000,4.096201904296875,0.739705291005224,0.8211877885580062,-1.0987076758652925
1701290238903276800,4.10627685546875,1.315493400746584,0.8968898030132054,-1.5010238634034991
1701290238913353000,4.11635302734375,1.777691079404205,0.6150619893789291,-1.5406959485784173
1701290238923428000,4.126427978515625,1.8439463433392345,0.3364186509996652,-1.163678160686791
1701290238933503700,4.136503662109375,1.6609633732080458,0.18448972143232822,-0.6653963383436202
1701290238943579000,4.146578857421875,1.3249907124102114,0.14758768549263476,-0.43596272881329057
1701290238953655000,4.156655029296875,0.8782295262068509,0.13656710978448391,-0.5668830648824572
1701290238963730000,4.16672998046875,0.48490752311572427,0.03695931908488274,-0.7806248920232057
1701290238973805800,4.176805908203125,0.22727789280116556,-0.07960252902507782,-0.9315019744500518
1701290238983881000,4.186880859375,-0.020628800400346516,-0.1547802273452282,-0.8951482200428843
1701290238993957000,4.19695703125,-0.15216317671462892,-0.27307226024866105,-0.7900199123561382
1701290239004032800,4.20703271484375,-0.15858356515094638,-0.4255968176215887,-0.7277393972709775
1701290239014108000,4.21710791015625,-0.13970292359218,-0.46746202892661093,-0.8083587021231651
1701290239024184000,4.22718408203125,-0.17984803310632705,-0.4216273294687271,-0.901001329985261
1701290239034259000,4.237259033203125,-0.28544761156663295,-0.3094470574438572,-1.00174104732424
1701290239044334800,4.2473349609375,-0.38440892105624075,-0.18955460360646248,-1.1307467819437385
1701290239054410000,4.257409912109375,-0.4609796811699867,-0.06336626449525357,-1.3077058156102894
1701290239064486100,4.267486083984375,-0.4483253667801618,-0.004323708418011665,-1.4391726796463131
1701290239074560800,4.277560791015625,-0.4936766666352749,-0.041571196794509886,-1.4472601245120167
1701290239084637000,4.287636962890625,-0.5711895299047232,-0.09160276342034339,-1.4415186582505701
1701290239094712000,4.297712158203125,-0.5620692348599433,-0.11889818210303783,-1.2806176099374889
1701290239104788000,4.3077880859375,-0.5606780727624893,-0.1602946068525314,-1.0272300011068582
1701290239114862800,4.31786279296875,-0.6638029316723346,-0.20764614061415193,-0.7000663774475455
1701290239124939000,4.32793896484375,-0.7524708106845617,-0.1820978578597307,-0.4205377806663513
1701290239135014100,4.33801416015625,-0.797229551474005,-0.17772446508109568,-0.14774550640285014
1701290239145089800,4.34808984375,-0.7929943981222808,-0.22609657406210898,0.10043050525933503
1701290239155166000,4.358166015625,-0.8195341761320829,-0.2752811684697866,0.2409445991039276
1701290239165241000,4.368240966796875,-0.8736435135908425,-0.3266816853612661,0.1562634516403079
1701290239175317000,4.37831689453125,-0.9123230805970728,-0.4620803358882665,-0.07077098779380321
1701290239185391600,4.3883916015625,-0.9363988065809011,-0.7207032150238752,-0.23425006990134714
1701290239195467800,4.3984677734375,-0.9865735810697078,-0.9300789559096098,-0.2838192797124386
1701290239205543000,4.40854296875,-0.9724556238681077,-0.9448059849202632,-0.0906219356894493
1701290239215618600,4.41861865234375,-0.885927241102606,-0.8392723113030195,0.2024868581548333
1701290239225693700,4.428693603515625,-0.8190250575661658,-0.7622627213805914,0.4850453241512179
1701290239235769900,4.438769775390625,-0.6809912362299859,-0.8557856392085552,0.7475082198411226
1701290239245844500,4.448844482421875,-0.4558819196395576,-1.0132342089802027,0.9247364258378744
1701290239255920600,4.458920654296875,-0.2519330261081457,-1.0917162095427513,1.008093631221354
1701290239265995800,4.468995849609375,-0.20223931313455104,-1.090985557180643,1.1012661281764506
1701290239276071700,4.47907177734375,-0.20938100158274173,-1.0322352620482445,1.2191110018342732
1701290239286147600,4.489147705078125,-0.32658743120655415,-0.9468068033486604,1.3031512210458516
1701290239296222700,4.49922265625,-0.49024508475139733,-0.815009392184019,1.2433666144296527
1701290239306298600,4.509298583984375,-0.6277687646083533,-0.7066396183580159,1.0086091795280576
1701290239316373500,4.51937353515625,-0.7192296353399753,-0.6256131940096616,0.7812123365223407
1701290239326449700,4.52944970703125,-0.8609520820610225,-0.5652654005527497,0.619198650792241
1701290239336524800,4.53952490234375,-0.9682102413833141,-0.4812953239679336,0.5278764578789472
1701290239346600700,4.5496005859375,-1.028055857471749,-0.4477905292510986,0.5208037430137396
1701290239356675600,4.559675537109375,-1.0958937874883412,-0.5372574496865272,0.5901262855648994
1701290239366751700,4.569751708984375,-1.030119292807579,-0.7002572238445282,0.6074754797726869
1701290239376827000,4.579826904296875,-0.8773866456419229,-0.8050801188439131,0.38491087922900913
1701290239386902800,4.58990283203125,-0.7062082412034273,-0.49262744984328743,-0.24088205526173112
1701290239396977700,4.599977783203125,-0.398038948610425,0.4931254624933004,-0.9179171012118458
1701290239407053800,4.6100537109375,-0.09983516971468925,1.2967583051383496,-1.35664257273674
1701290239417129700,4.620129638671875,-0.23162666259519754,1.262829147529602,-1.704471967805922
1701290239427204600,4.63020458984375,-0.6962129168897867,0.44722354301810263,-2.0137986137405037
1701290239437280800,4.64028076171875,-0.9076473438709973,-0.5924374851167201,-2.2062919011473654
1701290239447355600,4.650355712890625,-0.8146878320794552,-1.2249521290779113,-2.045503081037104
1701290239457431800,4.660431884765625,-0.6211917973708361,-1.1157850673943757,-1.459374340675771
1701290239467506700,4.670506591796875,-0.5586070386420935,-0.15737784262299537,-0.4508993089213967
1701290239477582600,4.68058251953125,-0.8347464313764125,1.4616203660368918,0.7135825693637132
1701290239487657700,4.69065771484375,-1.4967892945736645,3.0994056927531957,1.5552648644179106
1701290239497733600,4.700733642578125,-2.006926682144403,3.8864416208624837,1.862286740541458
1701290239507808800,4.710808837890625,-2.2964842132478953,3.2542566472470758,1.7331477349311113
1701290239517884700,4.720884765625,-2.308670910125971,1.8165449800640343,1.4311004323497414
1701290239527959600,4.73095947265625,-1.8715356304019688,0.6727911247700452,1.0311778619498013
1701290239538035700,4.74103564453125,-1.1955289776515214,-0.23514205030500887,0.590401303113997
1701290239548111600,4.751111572265625,-0.3209007638722658,-1.0140613074541092,0.18794833745360373
1701290239558186800,4.761186767578125,0.5715075828779489,-1.2525982608944177,-0.0805772192761302
1701290239568263000,4.771262939453125,1.2430746457457542,-0.9788280815094709,-0.29615444515049455
1701290239578337800,4.781337890625,1.8468349043875931,-0.5915367368847131,-0.5449897975042463
1701290239588413700,4.79141357421875,2.196146939229965,-0.417242830774188,-0.7152826512798667
1701290239598488800,4.80148876953125,2.219610816925764,-0.45886429645121096,-0.7692042110815643
1701290239608564700,4.811564697265625,1.9561463429778814,-0.5200052861124277,-0.6104524497568607
1701290239618639600,4.8216396484375,1.3501502881079912,-0.4868465283542871,-0.2296443296715617
1701290239628715800,4.8317158203125,0.5529442636400461,-0.4505979878872633,0.37960049786120653
1701290239638790700,4.841790771484375,-0.08124209465933963,-0.3763496793717146,0.9741823015302419
1701290239648866600,4.851866455078125,-0.18312248819973317,-0.20271920560598372,1.3615595708727837
1701290239658941700,4.861941650390625,0.08419044133722782,0.0019429507613182068,1.450169289956987
1701290239669017900,4.872017822265625,0.3053857993543148,-0.0684749858111143,1.1844888935253024
1701290239679093500,4.882093505859375,0.5092138429850339,-0.228082779443264,0.6184574770361184
1701290239689168600,4.892168701171875,0.7450584886014461,-0.2517746206760406,-0.09919570276737212
1701290239699244800,4.902244873046875,0.6518652411192655,-0.10396014069020748,-0.8199307742342352
1701290239709319700,4.912319580078125,0.45821956880688663,0.07474398307800292,-1.354011055189371
1701290239719395600,4.9223955078125,0.3497311370372772,0.26265666469633575,-1.5963146676868198
1701290239729470700,4.932470703125,0.36212066301107404,0.407832028350234,-1.5475395308628677
1701290239739547000,4.942546875,0.46134792996048923,0.3937415436774492,-1.230247312876582
1701290239749621500,4.95262158203125,0.6045078621387482,0.356542570617795,-0.7952800248414278
1701290239759697700,4.96269775390625,0.7327437814295291,0.39501580139696596,-0.33115415460020303
1701290239769772800,4.972772705078125,0.7788321633875369,0.41355040599703785,0.132128250554204
1701290239779848700,4.9828486328125,0.689376933389902,0.22685528347492218,0.5125576004549861
1701290239789923600,4.992923583984375,0.6473965712726116,-0.0992097312927246,0.8165528222337365
1701290239799999700,5.002999755859375,0.4165384453644976,-0.29018530761301514,0.9900196298703551
1701290239810075000,5.013074951171875,0.34236612469460814,-0.24615678079426287,1.0489160554751753
1701290239820150500,5.023150634765625,0.5145265624403953,-0.10060323147773742,0.932558790026605
1701290239830226700,5.033226806640625,0.6449345650732516,0.03754851714968681,0.6612009324803948
1701290239840301800,5.0433017578125,0.6989747097533195,-0.046559506601095195,0.32901421996206043
1701290239850377700,5.053377685546875,0.5281997715491801,-0.16610241634845732,0.0748652713701129
1701290239860452600,5.06345263671875,0.24466800354123114,-0.2205617362886667,-0.07193857026845216
1701290239870528800,5.07352880859375,0.033263898633047934,-0.21432021155059336,-0.13076660681217908
1701290239880604000,5.08360400390625,0.013958309660479425,-0.2652344062298536,-0.10750731177777051
1701290239890679600,5.093679443359375,0.1191653816718608,-0.3496645015418529,-0.09303338074535131
1701290239900754700,5.103754638671875,0.33401458553262053,-0.48139469268918034,-0.06210048234313726
1701290239910830800,5.113830810546875,0.43803368986845015,-0.6147708974778652,-0.0008764905735850334
1701290239920905500,5.123905517578125,0.45847442035079,-0.6510679532617331,0.05916179854273796
1701290239930981600,5.133981689453125,0.4089174124341458,-0.4702063591986894,0.09912263753116131
1701290239941056800,5.144056884765625,0.2776712784767151,-0.2047644476979971,0.08560235396176576
1701290239951132700,5.154132568359375,0.19502331734113393,-0.08426876727044581,-0.03342793008834123
1701290239961208600,5.16420849609375,0.22040683798789976,-0.0756862323641777,-0.09024871846288442
1701290239971283700,5.17428369140625,0.30483181873336435,-0.05889759464859962,-0.12632950114756822
1701290239981359600,5.184359619140625,0.3719476450204849,-0.05569850634634495,-0.18234949453324079
1701290239991434800,5.194434814453125,0.3661643854439258,-0.052722705405950546,-0.2894546552509069
1701290240001510700,5.2045107421875,0.24473697712421416,-0.03296586553454399,-0.42218350204676386
1701290240011585800,5.214585693359375,0.05475450349450111,0.052314124605059624,-0.5183548885568976
1701290240021661700,5.22466162109375,-0.04713716035857796,0.07050795294344425,-0.5278282348230481
1701290240031736600,5.234736572265625,-0.09952639602646231,-0.005636544582247734,-0.5385735007211566
1701290240041812700,5.244812744140625,-0.08790624698996544,0.011092471900582313,-0.5171165789335965
1701290240051887900,5.254887939453125,-0.03476604682430625,0.12897475495934485,-0.4807958500131964
1701290240061963800,5.2649638671875,-0.06761851511225105,0.31603637270629403,-0.4214660014271736
1701290240072038700,5.27503857421875,0.03778466399312019,0.48321314028799534,-0.21679420044869183
1701290240082114800,5.28511474609375,0.12079597854837774,0.35514556330144403,-0.07911562229096888
1701290240092190700,5.295190673828125,0.15172785403728484,0.06999824985563755,0.06253185949772597
1701290240102265600,5.305265625,0.0834942757666111,-0.08584872993826866,0.2550263159483671
1701290240112341800,5.315341796875,-0.03921893457993865,-0.13387655552625655,0.4182375408999622
1701290240122416600,5.325416748046875,-0.09923311216831207,-0.1131786354124546,0.5052034382998943
1701290240132492800,5.335492919921875,-0.10388371445313095,-0.1001595793634653,0.46277065623998637
1701290240142567700,5.345567626953125,-0.05353635987639427,-0.1713274575203657,0.45275896531343457
1701290240152643600,5.3556435546875,-0.09889642755985259,-0.20801497392654417,0.4540482744716108
1701290240162718700,5.36571875,-0.2035844441331923,-0.15144903709590435,0.5316759962923825
1701290240172794600,5.375794677734375,-0.2952290008686483,-0.07499883462190628,0.6334902109950781
1701290240182869800,5.385869873046875,-0.30935353394150733,-0.0643359863102436,0.6632819765381515
1701290240192946200,5.3959462890625,-0.24979309147000311,-0.087267364564538,0.6201262870311737
1701290240203021300,5.406021240234375,-0.1904514063157141,-0.1052227079719305,0.504516771209985
1701290240213097200,5.41609716796875,-0.1958560418382287,-0.009413140511512756,0.4515248934738338
1701290240223173000,5.426173095703125,-0.3725637310922146,0.17580840232670306,0.4626382620319724
1701290240233248300,5.436248291015625,-0.6727788498103618,0.22049977696835993,0.3392354619860649
1701290240243324200,5.44632421875,-0.9548774432100355,0.10831716685593128,0.21598624506667255
1701290240253399000,5.45639892578125,-0.9785198923431336,0.0324818814098835,0.24165727741792797
1701290240263475200,5.46647509765625,-0.7340354286752641,0.01203764379620552,0.3959912223003804
1701290240273550300,5.47655029296875,-0.4275670947812497,-0.004774959316849708,0.5113553850583732
1701290240283626000,5.4866259765625,-0.2529984633825719,-0.08063654824793338,0.4490921133689582
1701290240293701000,5.496701171875,-0.22381460060477257,-0.2194207495599985,0.3830117676094174
1701290240303777300,5.50677734375,-0.2697393164336681,-0.277934313327074,0.4752801553316414
1701290240313852400,5.516852294921875,-0.2619431095995009,-0.2674532513231039,0.6198039232090116
1701290240323928000,5.526927978515625,-0.12741875768899916,-0.2869160766839981,0.6693629038870335
1701290240334003200,5.537003173828125,-0.03396905122771859,-0.4128109858065843,0.6318953430190682
1701290240344079400,5.547079345703125,-0.044296237844228745,-0.5458551821619272,0.5885916233435273
1701290240354155300,5.5571552734375,-0.09107815502434968,-0.5907973166942596,0.6193313372611999
1701290240364230100,5.567230224609375,0.0016164952859282493,-0.5710334625601768,0.6235486626952886
1701290240374306300,5.577306396484375,0.2627881821215153,-0.4583861575454473,0.507778695615381
1701290240384381200,5.587381103515625,0.5079895618870854,-0.31404549115002156,0.278595553714782
1701290240394457000,5.59745703125,0.591732843978703,-0.19631226117312908,0.0738891198143363
1701290240404532200,5.6075322265625,0.4621579311691224,-0.23032792802155017,-0.035410043816268444
1701290240414608100,5.617608154296875,0.2644609376393258,-0.3091331691890955,0.010014321275055409
1701290240424683000,5.62768310546875,0.16834098905548453,-0.24641513946950433,0.1830794162429869
1701290240434759200,5.63775927734375,0.1613186892032623,-0.11140168886780738,0.26767785385921594
1701290240444834300,5.647834228515625,0.08325695987939834,-0.08270750930309295,0.28229820762500163
1701290240454910200,5.65791015625,-0.04005860027447342,0.06373392876386642,0.5416024931535125
1701290240464985000,5.667985107421875,-0.07020020216852427,0.345557650744915,0.8881576305031776
1701290240475061200,5.678061279296875,-0.03844955764263868,0.5533429075688123,1.1288231204047798
1701290240485137200,5.68813720703125,-0.05066285026669502,0.7191589081913232,1.3472761939764022
1701290240495212000,5.6982119140625,-0.22618030682280657,0.8134650853514671,1.6134771071508527
1701290240505288200,5.7082880859375,-0.5716555399812757,0.8443880468815564,1.949475048520416
1701290240515363300,5.71836328125,-0.9566882920242845,0.7949070998758078,2.3047861776471135
1701290240525439200,5.728439208984375,-1.3002106375493108,0.7313871061235666,2.5922569656044243
1701290240535514000,5.73851416015625,-1.4786507035538554,0.7802876228928566,2.700629077517986
1701290240545590300,5.74859033203125,-1.5308219125568865,1.0530413187116383,2.631750771602988
1701290240555665200,5.7586650390625,-1.6100687600120902,1.3390081318467855,2.440640316856652
1701290240565741300,5.7687412109375,-1.7942602291502057,1.4190081357568503,2.1849147665977475
1701290240575816200,5.778816162109375,-1.9890087481379508,1.4319792610108852,2.010311210016161
1701290240585892000,5.78889208984375,-2.1256253961525857,1.4239227958053349,1.910619248164445
1701290240595967200,5.79896728515625,-2.191956940194219,1.3843693685740233,1.9093869298905133
1701290240606043100,5.809043212890625,-2.215888435401767,1.2472650831729173,1.9227347795024512
1701290240616119000,5.819119140625,-2.23726103990674,1.0029600677251815,1.8757453570514917
1701290240626194200,5.829194091796875,-2.2821673724733293,0.7154279049694537,1.7019203836269676
1701290240636270300,5.839270263671875,-2.2572937741100785,0.4711065229088068,1.324046417297423
1701290240646345200,5.84934521484375,-2.131412162860483,0.299199219673872,0.7568681688606739
1701290240656421000,5.859421142578125,-1.8237971431493758,0.12500117515325546,0.2996440408319235
1701290240666496300,5.869496337890625,-1.4578268189728258,0.029610125365853307,0.053166503650695085
1701290240676572200,5.879572265625,-1.193944265743345,0.0608808774203062,0.021240210296958682
1701290240686647300,5.889647216796875,-1.0006289944291114,0.1588794793576002,0.024029402624070644
1701290240696723200,5.89972314453125,-0.48790860462784763,0.15385726728141308,-0.11053747325390577
1701290240706798300,5.90979833984375,0.49957098537087435,0.10517243908941745,-0.2707955474883318
1701290240716874200,5.919874267578125,1.6062071161478757,0.08842296434044837,-0.3869602129742503
1701290240726949000,5.92994921875,2.2978519944697617,0.11614742209017276,-0.32444062843620775
1701290240737025300,5.940025390625,2.4723498987197874,0.07216799511015415,-0.3762754450917244
1701290240747101200,5.95010107421875,2.478828154823184,0.23159692504405974,-0.4287885994002223
1701290240757176000,5.960176025390625,2.5808617113649843,0.40857437115013595,-0.5427800125002861
1701290240767252200,5.970252197265625,2.657299638879299,0.47843876549303527,-0.6719231097638607
1701290240777327400,5.980327392578125,2.4800936447143553,0.46145080581307407,-0.7620528780221939
1701290240787403000,5.990403076171875,2.0815157669216395,0.4279460110962391,-0.9034893474087119
1701290240797478100,6.00047802734375,1.6433640036314725,0.46256139740347857,-0.8785290936753153
1701290240807554300,6.01055419921875,1.1288187364906073,0.7159767710238695,-0.7221174657359719
1701290240817629200,6.020629150390625,0.7172183685828,0.8956354190379381,-0.8105272783339023
1701290240827705000,6.030705078125,0.7199193711698055,0.7557219214349985,-1.0120508444145322
1701290240837780200,6.0407802734375,0.7951385705441236,0.3406196098208427,-1.2942428151860832
1701290240847856400,6.0508564453125,0.8990105214942247,-0.03257715847790241,-1.4764724827319382
1701290240857931300,6.06093115234375,1.048354476069659,-0.3312713512390852,-1.4696987508133053
1701290240868007200,6.071007080078125,1.1208541873522102,-0.4749041616261005,-1.4564742353200912
1701290240878083300,6.081083251953125,1.155449626849964,-0.46207507519125934,-1.4078218480929732
1701290240888158200,6.091158203125,1.1754280735827982,-0.40103403877317906,-1.3218068216770886
1701290240898234000,6.101234130859375,1.1964537643462418,-0.3335375426054001,-1.2183929166927934
1701290240908309200,6.111309326171875,1.1959324438858776,-0.26464053198993204,-1.2045622519999741
1701290240918385200,6.12138525390625,1.1864315520256756,-0.2606424022644758,-1.2221779881894588
1701290240928460000,6.1314599609375,1.1343950753182173,-0.2186409973591566,-1.252174482524395
1701290240938536200,6.1415361328125,1.0425263544380665,-0.1392325296014547,-1.3357219497829675
1701290240948611300,6.151611328125,0.8470825466625392,-0.05016483761668205,-1.4704706119686364
1701290240958687200,6.161687255859375,0.6106446113280951,0.033009704676270485,-1.5856494812875985
1701290240968762000,6.17176220703125,0.4362257636636495,0.0828536397755146,-1.6173431349292398
1701290240978838300,6.18183837890625,0.2839231784783304,0.06121405489742755,-1.6202683747261761
1701290240988913400,6.191913330078125,0.10976955762133002,0.012305354821681975,-1.5963123295992612
1701290240998989000,6.201989013671875,0.01851721507385373,0.034947979262471195,-1.4602256968080998
1701290241009065200,6.212065185546875,-0.00239420166015625,0.06259469560086726,-1.224184359575808
1701290241019140400,6.222140380859375,-0.032453970489650964,0.07918810300529003,-1.0133312396138905
1701290241029216300,6.23221630859375,-0.029774376016855238,0.08527063778936862,-0.778569128537178
1701290241039291100,6.242291015625,-0.016933014622330666,0.08658873465061187,-0.6521563330203294
1701290241049367300,6.2523671875,-0.014069588015228509,0.06767419082224368,-0.5658046219959855
1701290241059442200,6.262442138671875,-0.043701779082417486,0.07296411392390728,-0.45807811450958247
1701290241069518000,6.27251806640625,-0.07109247483313083,0.10808160453438759,-0.35188100854754445
1701290241079593200,6.28259326171875,-0.1133008004873991,0.11892740819752215,-0.18604454965889453
1701290241089669000,6.292669189453125,-0.15049568189382553,0.061869888457655904,-0.08361234918832779
1701290241099744000,6.302743896484375,-0.11457286624982953,-0.030239070919156074,-0.055874155174195764
1701290241109820200,6.312820068359375,-0.06562427255511283,-0.12855097658932207,-0.04611643900871277
1701290241119895300,6.322895263671875,-0.02045417448580265,-0.2539776836782694,-0.05874035826027393
1701290241129971200,6.33297119140625,0.02235138640925288,-0.3734551269739866,-0.07369885793924331
1701290241140047400,6.34304736328125,0.07655074023902415,-0.4672358189553022,-0.021787176655232905
1701290241150122200,6.353122314453125,0.03534311605989933,-0.5187608390092849,0.026318682605028152
1701290241160198100,6.3631982421875,-0.008735533510893583,-0.4822141923785209,0.0430868620544672
1701290241170273300,6.373273193359375,-0.059664341237396,-0.39766134746968745,0.09701660516262053
1701290241180349200,6.38334912109375,-0.11771876306012272,-0.36784956205189223,0.11915741756111382
1701290241190423300,6.39342333984375,-0.16754501637220381,-0.3933265331357717,0.12697569009661674
1701290241200499200,6.403499267578125,-0.21374431135877967,-0.4480342748790979,0.09627543140649795
1701290241210574000,6.413573974609375,-0.18509470158815383,-0.47098728044331073,0.03437953172475099
1701290241220650200,6.423650146484375,-0.20666355931758879,-0.4434603910923004,0.022131460048258302
1701290241230725400,6.433725341796875,-0.27373803068101404,-0.36047932554483414,0.1299067751124501
1701290241240801300,6.44380126953125,-0.2796533922046423,-0.33188217661380764,0.31919220638871193
1701290241250876200,6.453876220703125,-0.3475912023991346,-0.3586509410738945,0.4876511227354407
1701290241260952300,6.463952392578125,-0.545898436781764,-0.40191374421715736,0.6295493644148111
1701290241271028200,6.4740283203125,-0.7619668071739375,-0.4131880024254322,0.7627551810726523
1701290241281103000,6.48410302734375,-0.6614091684035956,-0.38498599029183384,0.7890402536690234
1701290241291179300,6.49417919921875,-0.3559871286921203,-0.36229601957798,0.6901993556886911
1701290241301254400,6.50425439453125,-0.2791005806274712,-0.2512619949787855,0.4843865679815411
1701290241311330300,6.514330322265625,-0.2679373815782368,-0.17375673049390314,0.26763942154496906
1701290241321405200,6.5244052734375,-0.2904645629458129,-0.24118133046925067,0.027276713982224463
1701290241331481300,6.5344814453125,-0.34708252222463487,-0.367656085306406,-0.21909166373610495
1701290241341556200,6.54455615234375,-0.33574235917329787,-0.44061786114275453,-0.46427053940892216
1701290241351632400,6.55463232421875,-0.28293007578775287,-0.4203898966282606,-0.7320014386296272
1701290241361707300,6.564707275390625,-0.23766820778176187,-0.34809213765859603,-0.9136123897552489
1701290241371783200,6.574783203125,-0.2087495718114078,-0.31233167296946046,-0.9189818078339099
1701290241381859300,6.584859375,-0.12341755922362208,-0.4070423392772674,-0.7768947655841708
1701290241391934200,6.594934326171875,0.03354395768344402,-0.5267810638576745,-0.5373994885057211
1701290241402010000,6.605010009765625,0.08553615685775875,-0.6093658235639333,-0.21895342430919407
1701290241412085200,6.615085205078125,0.15876389015391468,-0.6831389157831669,0.06341302624642849
1701290241422161400,6.625161376953125,0.23415311233289537,-0.7593500488042831,0.24331629667133092
1701290241432236300,6.635236328125,0.34761297583952544,-0.6144359664350748,0.20292934122532605
1701290241442312200,6.645312255859375,0.43869894884414967,-0.06287877323925495,-0.013250818978250025
1701290241452387300,6.65538720703125,0.334856223988533,0.4849006549835205,-0.28790947163552044
1701290241462463200,6.665463134765625,-0.09508476031720638,0.878169904974103,-0.5248837058037519
1701290241472538000,6.6755380859375,-0.7358768187582493,1.1408037733167409,-0.6296887728855014
1701290241482614300,6.6856142578125,-1.298014442679286,1.159862109529972,-0.5114975700080394
1701290241492689200,6.695689208984375,-1.568819488648325,0.9002572336196899,-0.14024404473155735
1701290241502765000,6.70576513671875,-1.4827607692211866,0.6424871719211339,0.26499709034264085
1701290241512840200,6.715840087890625,-1.2844365837037564,0.557647911286354,0.6794876997992396
1701290241522916400,6.725916259765625,-1.0248726973909885,0.6688216366171836,1.0211854602456092
1701290241532992000,6.735991943359375,-0.8398130671162157,0.7656886041760445,1.1337401185408233
1701290241543067100,6.746067138671875,-0.7622733158398419,0.6298667598009109,0.9507979188114404
1701290241553143300,6.756143310546875,-0.779465712050721,0.46910395091474055,0.38807548073977227
1701290241563218400,6.766218505859375,-0.9477087206244468,0.5655898102015257,-0.35480011086463925
1701290241573294000,6.776294189453125,-1.1702174993276595,0.8090648045659065,-1.0068807483002542
1701290241583369200,6.786369140625,-1.4837690694808958,0.69467737788558,-1.392708157852292
1701290241593445400,6.7964453125,-1.6453817731946705,0.010490998876094818,-1.2937395418390631
1701290241603520300,6.806520263671875,-1.3977087426185608,-0.923580826061964,-0.7931663936883211
1701290241613596200,6.81659619140625,-0.9878460852235555,-1.4214163659423589,-0.29290304213911295
1701290241623671300,6.82667138671875,-0.47073359794318675,-1.2116314597338438,0.13610007679462433
1701290241633747500,6.83674755859375,0.08835340623557567,-0.723818132174015,0.3570864682361483
1701290241643823000,6.846822998046875,0.5653612621426582,-0.2827531117856502,0.4436117822617292
1701290241653898200,6.856898193359375,0.8029069395232945,0.11322715072929858,0.4414896755412221
1701290241663974400,6.866974365234375,0.8222603862255812,0.4489923062562942,0.3055640785306692
1701290241674049000,6.877049072265625,0.7539835533350706,0.5596668498933315,0.19420856689214705
1701290241684125200,6.887125244140625,0.6814361304532736,0.4311866004526615,0.2746083837747574
1701290241694200300,6.897200439453125,0.6838526170104742,0.19719605827033518,0.4803115736275911
1701290241704276200,6.907276123046875,0.8361679155468941,-0.1302104342341423,0.6760077487289905
1701290241714351000,6.91735107421875,1.1031500422269105,-0.5063923558235168,0.6934972281903028
1701290241724427300,6.92742724609375,1.1041033974289893,-0.7835533466905354,0.620355127350986
1701290241734502400,6.93750244140625,0.7598328638851642,-0.7945733378767966,0.44882045682072635
1701290241744578000,6.947578125,0.4254278907954693,-0.6280436360269784,0.15062456897050142
1701290241754653200,6.957653076171875,0.14576752086076886,-0.38704876804053784,-0.3594084814429283
1701290241764729300,6.967729248046875,-0.16290332804620264,-0.1917488987803459,-0.8749307769224047
1701290241774805200,6.97780517578125,-0.32568566006124017,-0.18094167356193064,-1.1884373388901353
1701290241784880000,6.987880126953125,-0.2593231363594532,-0.27182956671118735,-1.0828536886513234
1701290241794956300,6.997956298828125,-0.0921124665081501,-0.314529475274682,-0.6996957905694842
1701290241805031400,7.008031494140625,0.15394085391163825,-0.29542613087594505,-0.18303104705661535
1701290241815107300,7.018107421875,0.36736382436156273,-0.2542185066968202,0.19851561643630264
1701290241825182200,7.02818212890625,0.46999300870895383,-0.16926584881544113,0.5241894399292767
1701290241835258400,7.03825830078125,0.5244353409817442,-0.051691608792543406,0.8042699715048074
1701290241845333200,7.048333251953125,0.501098925590515,0.09541969135999678,1.0771619067505
1701290241855409200,7.0584091796875,0.42082306388113644,0.15095102444589137,1.2983029042318464
1701290241865484300,7.068484375,0.4037713913151994,0.008754968863725662,1.3137014027632772
1701290241875560200,7.078560302734375,0.5656546555986628,-0.316760010805726,1.1517954151913523
1701290241885635000,7.088635009765625,0.741455495673418,-0.5790425814926624,0.9390545817866921
1701290241895711200,7.098711181640625,0.7386018598079681,-0.5652168852359056,0.6636614773750305
1701290241905787100,7.108787109375,0.7228758828878402,-0.29991935064196584,0.4194746814794838
1701290241915862300,7.1188623046875,0.7240238108139485,-0.013089198675751685,0.2404949556402862
1701290241925938200,7.128938232421875,0.7252209847092628,0.13803776685893535,0.105413846629858
1701290241936013300,7.139013427734375,0.7367559396803378,0.18991174648106096,-0.0207711314804852
1701290241946089200,7.149089111328125,0.7523590939383953,0.17864041088223456,-0.10229600687026977
1701290241956164000,7.1591640625,0.7662345476210117,0.12869126184284685,-0.14763912341892718
1701290241966240300,7.169240234375,0.7682370465498417,0.03466214805841446,-0.13330737733617423
1701290241976315100,7.179315185546875,0.80918872320652,0.027214754661917685,-0.06105608785673976
1701290241986391300,7.189391357421875,0.7543583049315958,0.0798690710067749,-0.012267799290269613
1701290241996466200,7.199466064453125,0.544969631499052,-0.024089900639653203,-0.14238324871733785
1701290242006542000,7.2095419921875,0.25690073151811954,-0.24436755928993223,-0.2821832029432058
1701290242016617200,7.2196171875,0.18253091551475226,-0.36105391056239605,-0.3449683065496385
1701290242026693400,7.229693359375,0.2269067214012146,-0.1934358289539814,-0.24113252289146184
1701290242036769000,7.23976904296875,0.28321254599094386,-0.044486207458376885,-0.014992694209516048
1701290242046844200,7.24984423828125,0.3155262312270701,-0.050937575554847715,0.11038856630250811
1701290242056920300,7.25992041015625,0.24109189862012861,-0.1625917778789997,0.17606106191352008
1701290242066995200,7.2699951171875,0.11657836085334419,-0.3435930726736784,0.1927282652065158
1701290242077071000,7.280071044921875,-0.11516381788030267,-0.36990123388469215,0.2455472705937922
1701290242087146200,7.290146240234375,-0.3357645710051059,-0.19159107787013052,0.30270065192356704
1701290242097222400,7.300222412109375,-0.5403017858184874,0.0038110827207565303,0.28879662973359227
1701290242107297300,7.31029736328125,-0.6594986586071551,0.035787937217950816,0.19997677503004668
1701290242117373200,7.320373291015625,-0.6639781421087682,0.030691490861773488,0.13638108569309115
1701290242127448300,7.3304482421875,-0.6084381873250008,0.09765081141293049,0.19150807576179504
1701290242137524200,7.340524169921875,-0.4900594990514219,0.11554244193434715,0.29163594481274485
1701290242147599000,7.35059912109375,-0.3558886367537081,-0.037381928411126135,0.4046712262317538
1701290242157675300,7.36067529296875,-0.21053309422731398,-0.19034312363564967,0.49701647858247155
1701290242167751400,7.37075146484375,-0.050088703640550375,-0.2681120074927807,0.5246592493981123
1701290242177826000,7.380825927734375,0.1472996623314917,-0.2215513318479061,0.44745881307870145
1701290242187903500,7.390903564453125,0.28479543126821516,-0.08866963257789612,0.30546310237422586
1701290242197978400,7.400978271484375,0.2450830140829086,0.029330139380693433,0.14483224930465222
1701290242208054300,7.41105419921875,0.048007805713266134,0.07335223645865917,0.02504471714645624
1701290242218129400,7.42112939453125,-0.19700389669910073,0.06452420235872268,0.04500000219941139
1701290242228205300,7.431205322265625,-0.3530244794942438,-0.03014905454814434,0.2548028824560344
1701290242238280200,7.4412802734375,-0.3510474803328514,-0.18277824133932588,0.5453577540338039
1701290242248356400,7.4513564453125,-0.23082404097542164,-0.2711211261808872,0.7895074327893554
1701290242258431500,7.461431396484375,-0.08311769753918051,-0.1626227575391531,0.9121499159872531
1701290242268507100,7.471507080078125,-0.019555618210881948,-0.012775894942879677,0.8126384252689778
1701290242278583300,7.481583251953125,0.0011069383285939693,0.01701250959932804,0.5876166408315301
1701290242288658400,7.491658447265625,-0.042020401866734024,-0.000737082102894783,0.423788160764426
1701290242298734300,7.501734375,-0.07316109780073166,-0.01649228511750698,0.3436784128695726
1701290242308809200,7.511809326171875,-0.1555202320575714,-0.06816635825335979,0.2644100842349231
1701290242318885400,7.521885498046875,-0.25886370215415955,-0.15023849226236344,0.17527093444913625
1701290242328960500,7.53196044921875,-0.28807006902471183,-0.21154957779347897,0.10318141140267252
1701290242339036200,7.5420361328125,-0.21669044781327246,-0.23448855483233927,0.03916925021931529
1701290242349111300,7.552111328125,-0.15604630175828932,-0.20811668073534964,0.030683892077207564
1701290242359187500,7.5621875,-0.17436872491240502,-0.14456746088862418,0.062465516263246534
1701290242369262300,7.572262451171875,-0.19000322415679693,-0.1481003111898899,0.1273224577076733
1701290242379338200,7.582338134765625,-0.1252943128809333,-0.14529635968506335,0.14755334483161567
1701290242389413400,7.592413330078125,0.03796206638664007,-0.1253039574921131,0.19631196891218422
1701290242399489300,7.6024892578125,0.17594664175361394,-0.07020400156080722,0.22050869092717765
1701290242409565200,7.612565185546875,0.2073380975782871,-0.011455459994077682,0.22995924083963035
1701290242419640300,7.622640380859375,0.09397855264097452,0.03445055113434791,0.23869331304579972
1701290242429716200,7.63271630859375,-0.1105626076951623,0.03159808431267738,0.23820596792027351
1701290242439791000,7.642791015625,-0.30170345757976175,0.07974982854127884,0.21929624639749526
1701290242449867300,7.6528671875,-0.3568634731352329,0.18578794454932213,0.07933657156527042
1701290242459942400,7.6629423828125,-0.42663682819381354,0.31160043608546256,0.08740721142664551
1701290242470018300,7.673018310546875,-0.6400071916736662,0.5078308641940354,0.2589059338606894
1701290242480093200,7.68309326171875,-0.8908101908385753,0.5437772068440914,0.46824105047509074
1701290242490169300,7.69316943359375,-1.0531678677007554,0.4308762193292379,0.6170734753318131
1701290242500244500,7.703244384765625,-1.1380679186120628,0.35318273879587647,0.7516070334620774
1701290242510320400,7.7133203125,-1.2752692346468568,0.34044133064448834,0.8589784439004957
1701290242520395300,7.723395263671875,-1.4532374453559518,0.4096142355918884,1.090411264424026
1701290242530471400,7.733471435546875,-1.51816146068722,0.5421060587614774,1.403093212135881
1701290242540547300,7.74354736328125,-1.4809718399778007,0.4705249236285686,1.5778651110216975
1701290242550622200,7.753622314453125,-1.3078668513908982,0.4836135377824306,1.950435125724226
1701290242560698400,7.763698486328125,-0.9715069448411464,0.7782996639460324,2.5276281338274478
1701290242570773200,7.773773193359375,-0.601070873427391,0.9756845227867365,2.95773161521852
1701290242580849400,7.783849365234375,-0.37116409342736,0.9055272829771042,3.154198774692416
1701290242590924300,7.79392431640625,-0.42115766613036393,0.6349035849243402,3.2718522174313662
1701290242601000200,7.804000244140625,-0.7374133806757629,0.5201958402484655,3.5570518455862996
1701290242611075300,7.814075439453125,-1.2622881725206971,0.8153869933247566,3.9207916342318057
1701290242621151200,7.824151123046875,-1.871164166741073,1.1541969233751297,3.969465941029787
1701290242631226400,7.834226318359375,-2.254248561195284,1.2537485999733209,3.6677380796611305
1701290242641302300,7.84430224609375,-2.2657553129851817,1.0572124669164418,3.2544831494793294
1701290242651377400,7.85437744140625,-2.0024395998582243,0.8669950154870748,3.007588994321227
1701290242661453300,7.864453369140625,-1.7407894818559289,0.9064987583577633,2.919403345867991
1701290242671529200,7.874529296875,-1.7450179132059216,1.1107248613953589,2.6480706227630377
1701290242681604400,7.884604248046875,-1.9768037849508224,1.2409826419025658,1.9200380877643823
1701290242691680500,7.894680419921875,-2.221741837605089,1.1257242776066063,0.9219467951193452
1701290242701755400,7.90475537109375,-2.1754384977221486,0.8745663275241852,0.11573971807211637
1701290242711831300,7.914831298828125,-1.9890908734634518,0.6281856748461723,-0.4399925688512623
1701290242721906400,7.924906494140625,-1.7312297724805772,0.27505846562981606,-0.6013029286175966
1701290242731982300,7.934982421875,-1.359455292069912,0.11904606614112853,-0.4357289200574159
1701290242742057200,7.94505712890625,-0.6384287633758038,0.1609142000555992,-0.16212839815095065
1701290242752133400,7.95513330078125,0.48294721936080603,0.28792788407504555,0.01122618128284812
1701290242762208300,7.965208251953125,1.6034171931684016,0.4639209953188896,0.08411313831731676
1701290242772284200,7.9752841796875,2.2858476684212685,0.6276613587111234,-0.10691928275674581
1701290242782360300,7.9853603515625,2.543058342671394,0.8288947096735239,-0.23859803597778081
1701290242792435500,7.995435546875,2.53547534019649,0.8421861529231071,-0.5033583949550986
1701290242802511000,8.005510986328124,2.5990134541273116,0.9230746301054954,-0.7109437452927231
1701290242812586200,8.015586181640625,2.6953356472849843,1.0625035590618848,-0.9097630208507179
1701290242822662400,8.025662353515624,2.472458619791269,1.0451742385983467,-1.2548808188736438
1701290242832737300,8.0357373046875,2.0108423942834137,1.1443483140558004,-1.518250892536342
1701290242842813200,8.045813232421875,1.4646049348056316,1.2252759542047977,-1.5874714360177515
1701290242852888300,8.055888427734375,1.0061854595124722,1.1250111609011888,-1.3506781113743782
1701290242862964500,8.065964599609375,0.5868739327054471,0.8812965125620364,-1.2717352153018116
1701290242873039400,8.076039306640626,0.5599947666734457,0.5835539214372635,-1.125775423271954
1701290242883115300,8.086115234375,0.8562397396516055,0.40556466794013973,-1.0636956914559006
1701290242893190400,8.0961904296875,1.0763901186604052,0.16697276944220066,-0.7761734655722975
1701290242903266300,8.106266357421875,1.1209850471902638,-0.10617314056456088,-0.5003156662583351
1701290242913342200,8.11634228515625,1.00579039578028,-0.27692776663303376,-0.3471595329836011
1701290242923417300,8.126417236328125,0.9342828373402357,-0.363556833294034,-0.3596273848906159
1701290242933493200,8.1364931640625,1.0025064787387847,-0.4123018672406673,-0.43778263771682974
1701290242943568100,8.146568115234375,1.119092876768112,-0.4487152428805828,-0.5267579752430319
1701290242953644300,8.156644287109375,1.2340198171526193,-0.45337563590705393,-0.7694760137602686
1701290242963719400,8.166719482421875,1.2851976312041282,-0.4085825544565916,-1.0624836853176354
1701290242973795300,8.17679541015625,1.280710110526532,-0.34680502045750616,-1.4274842876791953
1701290242983870200,8.1868701171875,1.2191624397605656,-0.2859218049496412,-1.7685224151730536
1701290242993946400,8.1969462890625,1.0857229604773222,-0.2983820580720901,-2.117115780352056
1701290243004021500,8.207021484375,0.8692617913752794,-0.3103822924673557,-2.3541493434920904
1701290243014097200,8.21709716796875,0.6273077229678631,-0.27774142110347744,-2.4691738990321754
1701290243024173300,8.22717333984375,0.47501858178600664,-0.24390578699707985,-2.4248425898745656
1701290243034248400,8.23724853515625,0.3848708394795656,-0.2447960138350725,-2.309358892390132
1701290243044324400,8.247324462890624,0.3317793007612228,-0.25039514901638027,-2.18984374743253
1701290243054399200,8.257399169921875,0.30452143760994077,-0.24890695628523826,-2.022326203589141
1701290243064475400,8.267475341796874,0.3199697666324675,-0.2581827341526747,-1.8428803215429186
1701290243074550300,8.27755029296875,0.3927444954641163,-0.3477309031307697,-1.8424398842990397
1701290243084626400,8.28762646484375,0.48162616335749625,-0.5280471382707357,-1.8876891850844024
1701290243094701300,8.297701416015625,0.5353409485407173,-0.6962409739404917,-1.8430337585389613
1701290243104777200,8.307777099609375,0.5685382847435773,-0.7352139709353447,-1.7363497458428143
1701290243114852400,8.317852294921876,0.5642750743411481,-0.7614946596175431,-1.5690826696291564
1701290243124928300,8.32792822265625,0.5468973846912384,-0.7926829940855502,-1.3391516319707035
1701290243135003400,8.33800341796875,0.5471085432238877,-0.8605448164343833,-1.0417094850972295
1701290243145079300,8.348079345703125,0.5768412720561027,-0.956703343462944,-0.7677490438371897
1701290243155155500,8.358155517578124,0.5397371376730501,-1.0128186139166355,-0.5102554609924554
1701290243165230300,8.368230224609375,0.46896439631357784,-1.039984853261709,-0.2827642177015543
1701290243175306200,8.37830615234375,0.3071950407333672,-1.035591002216935,-0.09464783020466566
1701290243185381400,8.38838134765625,0.12828735721707343,-1.053232457369566,0.12100216864496469
1701290243195456800,8.398456787109374,-0.05384031125903129,-1.1165706648141145,0.3338578606009483
1701290243205532000,8.408531982421875,-0.25308497262224555,-1.1420049658000468,0.5072174084708094
1701290243215607600,8.418607666015625,-0.4283509386353194,-1.1250210977733135,0.8087935864090919
1701290243225682700,8.4286826171875,-0.5622533592551946,-1.047286700707674,1.1571721397936343
1701290243235758800,8.4387587890625,-0.6442844306014478,-0.9030968409597873,1.4734680402189493
1701290243245833700,8.448833740234376,-0.6326962841384113,-0.7103174300879239,1.6678902498617767
1701290243255909600,8.45890966796875,-0.5723759632103145,-0.5249497567772865,1.8675173346713185
1701290243265985800,8.46898583984375,-0.4726338786065578,-0.4275561349958181,1.9993413415819405
1701290243276061000,8.47906103515625,-0.405562329852581,-0.36168811681270596,2.0090490811258555
1701290243286136600,8.489136474609374,-0.2997252893745899,-0.1740817246645689,1.814537147372961
1701290243296211700,8.499211669921875,-0.2786328169852495,0.07481003405153751,1.4345055646181106
1701290243306287900,8.509287841796874,-0.4924047470033168,0.3077268095225096,1.0063377274647354
1701290243316362500,8.519362548828125,-0.9880952376790344,0.42171500775218007,0.5537941584676503
1701290243326438700,8.529438720703125,-1.5106898096323012,0.31820261082947254,0.20263912610709667
1701290243336513800,8.539513671875,-1.883890669584274,-0.018243512699007987,-0.029645488940179345
1701290243346589700,8.549589599609375,-2.069403304323554,-0.42493280075490475,-0.2861749029278755
1701290243356664600,8.55966455078125,-2.022198485556245,-0.6889028861373663,-0.5246525273963809
1701290243366740700,8.56974072265625,-1.8531405804030596,-0.7522878553330898,-0.7061164712667465
1701290243376816600,8.579816650390624,-1.5827344706237316,-0.5461673168510198,-1.003347313477099
1701290243386891800,8.589891845703125,-1.1836030506014823,0.2535667647898197,-1.3576388902977108
1701290243396967700,8.5999677734375,-0.660271834936738,1.143662669879198,-1.5412421842843294
1701290243407042800,8.610042724609375,-0.2762584890693426,1.6623790852248668,-1.6539683997541665
1701290243417118700,8.62011865234375,-0.11568170427456498,1.8435270950138567,-1.8304370195552706
1701290243427193600,8.630193603515625,0.16071180935129523,1.7888900804191827,-2.030472977426648
1701290243437269800,8.640269775390625,0.5972878477573395,1.4849275918662548,-2.052143249703944
1701290243447345000,8.650344970703125,0.936035233965516,1.0232020607650278,-1.6964608030468225
1701290243457420800,8.6604208984375,0.8047866888552904,0.8423065644323825,-0.7868520959749817
1701290243467495700,8.67049560546875,0.10440729993581771,1.2534434795469045,0.3917494930773973
1701290243477571800,8.68057177734375,-0.9140380678214132,1.8418214601397513,1.3197811610683798
1701290243487646700,8.690646728515626,-1.8480916264504192,1.9894395407706498,1.8278689226329325
1701290243497722600,8.70072265625,-2.2726117547512055,1.2106301737368106,1.961143420612812
1701290243507798800,8.710798828125,-1.9395704712301491,0.0446335069745779,1.8738380621254442
1701290243517873700,8.720873779296875,-1.2727403006911278,-0.8446031509369611,1.461056886935234
1701290243527949800,8.73094970703125,-0.7589082233209162,-1.3284937520951032,0.8109282603502274
1701290243538024700,8.741024658203125,-0.4885954909134656,-1.517615224981308,0.3286298968195915
1701290243548100600,8.7511005859375,-0.44703474244773383,-1.4565075530678033,0.07574643811881542
1701290243558175700,8.76117578125,-0.27443763031773266,-1.055958667463064,-0.045156654065847394
1701290243568252000,8.771251953125,0.28941373871862885,-0.42314533281624317,-0.09089607645571231
1701290243578326800,8.781326904296876,1.1089029066652059,0.22594109123945236,-0.10635025069713593
1701290243588402700,8.791402587890625,1.9464058702081442,0.6428583433210849,-0.20534546245634555
1701290243598477800,8.801477783203126,2.6276059268832204,0.7749258035987615,-0.26409254271835086
1701290243608553700,8.8115537109375,2.9228590392798184,0.47735213930010795,-0.1294610771715641
1701290243618629600,8.821629638671874,2.8803759883373976,-0.008543371939659119,0.1539271176472306
1701290243628704800,8.831704833984375,2.4306892700761553,-0.39334582235813137,0.6167655784264207
1701290243638781000,8.841781005859374,1.600232717913389,-0.5764543185651302,1.2074988899737595
1701290243648855800,8.851855712890625,0.7654828524708748,-0.6289233414709567,1.7288462383449077
1701290243658931700,8.861931640625,0.2492354575872421,-0.5767080010652542,2.035618523621559
1701290243669006800,8.8720068359375,-0.00817397237168625,-0.39954292343258857,1.9311834588959813
1701290243679082800,8.882082763671875,0.04645485891653225,-0.18641864366829394,1.3504293973103165
1701290243689157600,8.89215771484375,0.33377778110206124,0.03695522743165493,0.3824211082398891
1701290243699233800,8.90223388671875,0.5134358445942402,0.2283919915229082,-0.691851799070835
1701290243709308700,8.91230859375,0.6744985132098198,0.33284605320990085,-1.5955664796680211
1701290243719384600,8.922384521484375,0.7152934649348258,0.3142208477169275,-2.2297715609341857
1701290243729460700,8.932460693359374,0.6262696120917797,0.32481004627048965,-2.55544056212157
1701290243739536000,8.942535888671875,0.4866004811713472,0.5273305144339799,-2.466030632570386
1701290243749611800,8.95261181640625,0.2688683788180351,0.8049959476917982,-2.0580556886181234
1701290243759686700,8.962686767578125,0.08229366780519486,0.7672685668438672,-1.517012582913041
1701290243769762800,8.9727626953125,-0.0011257891595363616,0.37906419902741906,-0.8438938336238264
1701290243779838000,8.982837890625,0.0604710545103997,-0.06170213067531585,-0.1497758431866765
1701290243789913600,8.99291357421875,0.07415368903465569,-0.30871932769119736,0.4231929713502526
1701290243799988700,9.00298876953125,0.21994280067272484,-0.3115291244149208,0.7299953595042228
1701290243810065000,9.01306494140625,0.32418409639187157,-0.2940963435769081,0.6956538217023015
1701290243820139500,9.023139404296876,0.4320540309369564,-0.3586702302962541,0.4410618055179715
1701290243830215700,9.033215576171875,0.5533527713757008,-0.44479543908834457,0.2135723157927394
1701290243840290800,9.043290771484376,0.6546786180395633,-0.4009925377190113,0.09811316822767258
1701290243850366700,9.05336669921875,0.6872866100471466,-0.2818225529372692,0.04422521843463182
1701290243860442600,9.063442626953124,0.6210439133327454,-0.2179956851929426,0.034481384664028884
1701290243870517800,9.073517822265625,0.5153169091004878,-0.29422844552397726,0.09566124503090977
1701290243880593700,9.08359375,0.5297569378633051,-0.33721710790097714,0.12068448099792004
1701290243890668500,9.09366845703125,0.6005087094999849,-0.3079360683590174,0.16484613267704842
1701290243900744700,9.10374462890625,0.6349379255853593,-0.26627134806215763,0.15507921029180288
1701290243910819800,9.11381982421875,0.5802863710086792,-0.3143652246236801,0.13636062742695212
1701290243920895700,9.123895751953125,0.5243535444498062,-0.4408662829458713,0.08088672361671924
1701290243930970600,9.133970703125,0.44071313821077346,-0.45247430315315723,0.0740673989906907
1701290243941046800,9.144046875,0.2342693591237068,-0.25545593953728674,0.08443067983388901
1701290243951122000,9.154121826171876,-0.111608463486284,0.03243044348359108,0.02837985291853547
1701290243961197800,9.16419775390625,-0.5576712921619414,0.2722626974314451,-0.054237201622128486
1701290243971273700,9.174273681640624,-0.9274129515707492,0.2988362315803766,-0.15836919174790381
1701290243981348900,9.184348876953125,-0.9954780414067208,0.20665596053302288,-0.13092632741853594
1701290243991424800,9.1944248046875,-0.790334531263262,0.20283610998392104,0.05077040229439735
1701290244001499600,9.204499755859375,-0.6306663857460022,0.2685129895091057,0.26488880766257644
1701290244011575800,9.214575927734375,-0.6917384018242358,0.24782149913609025,0.39572877197191114
1701290244021650700,9.224650634765625,-0.821580733398348,0.0909445917725563,0.5102057766318321
1701290244031726800,9.234726806640625,-0.8464122461855411,-0.08034194921553134,0.7766336304299533
1701290244041801700,9.2448017578125,-0.6672258918583392,-0.2577840902239084,1.0260502898029982
1701290244051877600,9.254877685546875,-0.5543794110096991,-0.37452655559778214,1.2237144039765
1701290244061952800,9.264952880859376,-0.505810172021389,-0.4472983618199825,1.412154616600275
1701290244072028700,9.275028564453125,-0.37073768470883367,-0.4924626146703958,1.5276535116538406
1701290244082104600,9.2851044921875,-0.1471498785972595,-0.5223100559234619,1.5451573119014501
1701290244092179700,9.2951796875,0.1057620755456388,-0.5517383949816227,1.5348872622996568
1701290244102255900,9.305255859375,0.2932275979183614,-0.6421101553022861,1.5230816736936568
1701290244112330800,9.315330810546875,0.3613021862350404,-0.7029770041972399,1.4573955879487097
1701290244122406700,9.32540673828125,0.3270600171543658,-0.7155161677747964,1.2815383780442178
1701290244132481800,9.335481689453125,0.17863354275003074,-0.6910381446003914,1.050328260360658
1701290244142557700,9.3455576171875,0.005701426512002944,-0.6491103894531727,0.8892445489570497
1701290244152632800,9.3556328125,-0.10119491376057267,-0.5123924730211497,0.7857992259211838
1701290244162708700,9.365708740234375,-0.23940248422846197,-0.261546657627821,0.6381118794463575
1701290244172783900,9.375783935546876,-0.4181856645822525,-0.062336921447515486,0.3582600420601666
1701290244182859800,9.38585986328125,-0.5561643947303295,-0.05251052395999431,0.026960195378959176
1701290244192935200,9.39593505859375,-0.5230734415113926,-0.1194043780595064,-0.3454112280115485
1701290244203010300,9.40601025390625,-0.3603941314794123,-0.056084875315427773,-0.604539718581736
1701290244213086500,9.41608642578125,-0.3519010284222662,0.19562837056219576,-0.7634899250879883
1701290244223161300,9.426161376953125,-0.5987305939115584,0.5082452902138233,-0.7842049424670636
1701290244233237200,9.4362373046875,-0.9352303473234176,0.6897375833958387,-0.6183091546066105
1701290244243312400,9.4463125,-1.3069886072516441,0.5886170500457286,-0.3667290335893631
1701290244253388300,9.45638818359375,-1.5437186574004589,0.30379648433625694,0.16406038912683724
1701290244263463200,9.466463134765625,-1.6629263438440858,0.10872516313493251,1.019960302364826
1701290244273539300,9.476539306640625,-1.6700573647677897,0.15458558155596255,2.0301802780903873
1701290244283614500,9.486614501953126,-1.4416136430576443,0.6117863287091255,3.044357759270072
1701290244293690000,9.496690185546875,-1.0688884377934038,1.0304098001867532,3.391880280347168
1701290244303766300,9.506766357421874,-0.7408731657408177,1.1945546527266502,3.18212898414731
1701290244313841400,9.51684130859375,-0.6167335758529603,1.1242992132395506,2.9317674451395868
1701290244323917300,9.526917236328124,-0.7822763124920428,0.9921399830251931,2.984047082953155
1701290244333992200,9.5369921875,-1.2994202178239822,1.255178925037384,3.2117204048126933
1701290244344068400,9.547068359375,-2.0550446702338756,1.6721961303621529,3.2965111501306295
1701290244354143500,9.5571435546875,-2.7107646870851516,1.867811056920886,3.13874927662611
1701290244364219400,9.567219482421875,-2.781168010610342,1.655301109662652,2.9596780731111765
1701290244374294300,9.577294189453125,-2.5692402471542355,1.3882663760125635,2.864067243093252
1701290244384370400,9.587370361328125,-2.4458150891460475,1.438529413306713,2.646641759003699
1701290244394445300,9.5974453125,-2.3852421086311337,1.571066244661808,1.9748243015713989
1701290244404521200,9.607521240234375,-2.3867945987701416,1.558512468037009,0.950529184872657
1701290244414597400,9.617597412109374,-2.290797253652662,1.3720038079977035,-0.10131254879087209
1701290244424672300,9.62767236328125,-1.7996821080684662,1.0773743804574012,-0.7004601990707219
1701290244434748400,9.63774853515625,-1.1892343344867229,0.6998761155724526,-0.8181802773050963
1701290244444823300,9.6478232421875,-0.7034907989382744,0.29259879849553105,-0.7466150703936815
1701290244454899200,9.657899169921874,-0.041080198407173155,0.03590133446455002,-0.49235301681607957
1701290244464974300,9.667974365234375,1.1473691231817007,-0.020111060136556624,-0.11222323438376187
1701290244475050200,9.67805029296875,2.440925417408347,0.1418687233239412,-0.024696634361147878
1701290244485125400,9.68812548828125,3.4867525669574735,0.491940052101016,-0.24699966135919094
1701290244495201300,9.698201171875,4.142303218591213,0.928442879140377,-0.34531478189975023
1701290244505276200,9.708276123046875,3.997176370254159,1.0098737926363945,-0.43180414782911536
1701290244515352300,9.718352294921875,3.509802603155374,0.7953829006940126,-0.6655515289053321
1701290244525427500,9.728427490234376,3.067155282011628,0.6800503021180629,-0.7501455826073885
1701290244535503400,9.73850341796875,2.272854915857315,0.7430091548562049,-0.8501417881026864
1701290244545579500,9.74857958984375,1.2616507513999937,0.9805173497706651,-1.0927768245115876
1701290244555654400,9.758654296875,0.39125498755872246,1.0688637417435645,-1.1431956368893383
1701290244565730300,9.768730224609374,-0.05897117134146392,0.9010293870359659,-1.298758539044857
1701290244575805400,9.778805419921875,-0.05811565049067139,0.5889075574249029,-1.597576942707598
1701290244585881300,9.78888134765625,0.2942259613059461,0.3121872960627079,-1.6953955119028687
1701290244595956200,9.798956298828125,0.7466705999732017,0.2076438025265932,-1.6618553536117076
1701290244606032400,9.809032470703125,1.0176556786842643,0.16919219905734062,-1.6016025449618696
1701290244616107300,9.819107177734375,1.2750666978120804,-0.001197100830078125,-1.5428212701693176
1701290244626183200,9.82918310546875,1.4753544384874402,-0.24560733021795747,-1.552988736179471
1701290244636259300,9.83925927734375,1.6693759583748875,-0.45330958493351936,-1.496008957850933
1701290244646334500,9.84933447265625,1.7343389905422926,-0.6148854637682437,-1.4291910915970802
1701290244656410000,9.85941015625,1.673725239625573,-0.725483435037732,-1.407521988363564
1701290244666485200,9.8694853515625,1.5050276922173798,-0.7525918067157268,-1.4017714620128272
1701290244676561400,9.8795615234375,1.2647235829740762,-0.7064560784846544,-1.390559455385804
1701290244686636300,9.88963623046875,1.0478004954487086,-0.5803776294887065,-1.4317460367769002
1701290244696712200,9.899712158203124,0.9145873722672462,-0.41837388063073155,-1.4788260601207612
1701290244706787300,9.909787353515625,0.7978753020316361,-0.3371224153548479,-1.5097271020799874
1701290244716863500,9.919863525390625,0.6506675557672977,-0.30846213805973527,-1.5729042737439274
1701290244726938400,9.9299384765625,0.5170468746982515,-0.2851478979676962,-1.5807196236699819
1701290244737014300,9.94001416015625,0.4618674237899482,-0.22483108417093753,-1.5640516897246242
1701290244747090400,9.95009033203125,0.4754140108443796,-0.22568390160799026,-1.568248264631629
1701290244757165300,9.960165283203125,0.5365544159837067,-0.2071902135401964,-1.6258181178078055
1701290244767241200,9.9702412109375,0.5875913602598011,-0.22902269064188002,-1.7921859070941806
1701290244777316400,9.98031640625,0.535624295526743,-0.21385493212640283,-1.9975386760741471
1701290244787392300,9.990392333984374,0.408112744987756,-0.18530805207788942,-2.160598948247731
1701290244797467100,10.000467041015625,0.21261180019751189,-0.1660819580823183,-2.225820777481794
1701290244807543300,10.010543212890624,-0.002942483192682266,-0.21200725843310356,-2.1017951693624255
1701290244817618400,10.020618408203125,-0.12942016063928605,-0.22904256438612935,-1.836578006528318
1701290244827694300,10.0306943359375,-0.18510697654783725,-0.19106851530075072,-1.4352332943707704
1701290244837769200,10.040769287109375,-0.19011063005402684,-0.20891747572422026,-1.0229951400160788
1701290244847845400,10.050845458984375,-0.14338161210492253,-0.2605330966711044,-0.6456526502147316
1701290244857920500,10.06092041015625,-0.07191957330703735,-0.3554652967751026,-0.3394379988208413
1701290244867996200,10.07099609375,-0.02097615253329277,-0.5135346287935972,-0.07180296119004488
1701290244878072300,10.081072265625,-0.04331307202577591,-0.6267775616139173,0.13983166453838347
1701290244888147500,10.0911474609375,-0.04295417558550835,-0.6622825902372598,0.3416191422522068
1701290244898223400,10.101223388671874,-0.10763035363554954,-0.5964765313744544,0.5217588517814874
1701290244908298200,10.11129833984375,-0.2629289057664573,-0.46719840955436226,0.669365534235537
1701290244918374400,10.12137451171875,-0.38562078106403347,-0.36600714905560017,0.7801505525097251
1701290244928449300,10.13144921875,-0.4656149397552013,-0.3742009769052267,0.8839379669815302
1701290244938525400,10.141525390625,-0.5303033927649259,-0.5168313322514295,1.0649623503908514
1701290244948600300,10.151600341796875,-0.5347516043454408,-0.7691068881869315,1.2341536726653575
1701290244958676200,10.16167626953125,-0.4795259762078523,-0.9362754724621772,1.3176207681640981
1701290244968752400,10.17175244140625,-0.3975631477922201,-0.913338248988986,1.3611734941646456
1701290244978827300,10.1818271484375,-0.40344329187199474,-0.7048276004999876,1.355624335604906
1701290244988903200,10.191903076171876,-0.49234001120403403,-0.4839011225521564,1.3625091266825795
1701290244998978300,10.201978271484375,-0.5328577534228564,-0.4236182110249996,1.3603013875052332
1701290245009054500,10.212054443359374,-0.4761760081928223,-0.5085597629904747,1.2644447660326956
1701290245019129300,10.22212939453125,-0.4173053746163845,-0.7030185052514076,1.0885942781299351
1701290245029205200,10.232205322265624,-0.5274620318591594,-0.901433876183629,0.883162306433916
1701290245039280400,10.2422802734375,-0.8186731753885745,-1.0430167683035134,0.7203238603174686
1701290245049356300,10.252356201171875,-1.1994535306841134,-1.1489467477619648,0.6134513393118978
1701290245059431400,10.262431396484375,-1.5216899270743132,-1.2620838821202516,0.5656555689141154
1701290245069507300,10.27250732421875,-1.7414350862830876,-1.2770149092704057,0.5777306221112608
1701290245079583500,10.28258349609375,-1.861479515811801,-1.23394382930696,0.5873103513613342
1701290245089658400,10.292658447265625,-1.8579291298538445,-1.0754320142179727,0.4570268518909812
1701290245099734300,10.302734375,-1.5772371883817016,-0.2736012525588274,0.18993132796436546
1701290245109809400,10.312809326171875,-1.0454670840650797,0.8833002535998821,-0.18510931463539598
1701290245119885300,10.32288525390625,-0.5701379019599407,1.5404565868645905,-0.607066898971796
1701290245129960200,10.332960205078125,-0.2222965972572565,1.3207435763597488,-1.0419427093312144
1701290245140036400,10.343036376953124,0.2220049208343029,0.46544367484152316,-1.4094701998218893
1701290245150111500,10.353111572265625,0.8441770344793796,-0.09065057726204395,-1.646084076245129
1701290245160187100,10.363187255859375,1.094687918829918,0.27189269507527347,-1.5976263348072766
1701290245170262300,10.37326220703125,0.5485551618356257,1.6324854667425155,-1.0146011134192348
1701290245180338400,10.38333837890625,-0.7062648667614907,2.9612744023919104,-0.16861527595221995
1701290245190414300,10.393414306640626,-1.8697738814264535,3.5764784305900332,0.704770901876688
1701290245200489500,10.403489501953125,-2.3385849868744613,3.348489174649119,1.474516380228102
1701290245210565400,10.4135654296875,-2.6203175234407183,2.5331881060421466,1.8327724767655134
1701290245220640500,10.423640625,-2.8921903447717425,1.5709230367988347,1.86098705611974
1701290245230716400,10.43371630859375,-2.8399948781102893,0.6680424689382314,1.6594959310039876
1701290245240791600,10.44379150390625,-2.582910460588336,-0.20465689567029474,1.1434978347063063
1701290245250867500,10.453867431640624,-1.9440876563936471,-0.8031476894766092,0.5574833683744073
1701290245260942300,10.4639423828125,-0.6219856511622667,-1.121948266199231,-0.12643150021731853
1701290245271018500,10.4740185546875,1.5300333925276994,-1.2598270431041716,-1.0741598023250698
1701290245281094700,10.4840947265625,3.8898137276440856,-1.3484212723582982,-2.0326114507600663
1701290245291169300,10.494169189453125,5.570290779617428,-1.353037826243043,-2.5246441495805976
1701290245301245400,10.504245361328126,6.075731533804536,-1.1379185732692478,-2.473540277548134
1701290245311320600,10.514320556640625,5.306736289298534,-0.8346376372396945,-2.178944460016489
1701290245321396200,10.524396240234376,3.804343767890334,-0.48817163947820663,-1.6964108264252542
1701290245331471400,10.534471435546875,1.9865280372381209,-0.15822773745059965,-0.4309250269070267
1701290245341547500,10.544547607421874,-0.3628068917095661,-0.22159692455530167,1.2997940195724367
1701290245351622400,10.554622314453125,-2.3245494472593067,-0.4471937324017286,2.9592005187273025
1701290245361698300,10.5646982421875,-2.225034011018276,-0.7930658559232949,3.8441330497041344
1701290245371773400,10.5747734375,-1.3041934235751629,-1.0092027615070343,3.834545137147605
1701290245381849600,10.584849609375,-0.8437234454929828,-0.7767237929314375,3.0373832440823314
1701290245391925200,10.59492529296875,-0.524613072168827,-0.17856150042712687,1.5345374259486793
1701290245402000400,10.60500048828125,0.01864040306210518,0.45310091061890123,-0.06969137586355209
1701290245412076500,10.61507666015625,0.7456687294542789,0.7458095992296934,-1.368218444240093
1701290245422151400,10.6251513671875,1.425920107102394,0.9053080872684717,-2.037870978723466
1701290245432227300,10.635227294921876,1.675456008940935,0.9455015659689903,-2.2949489665046334
1701290245442302500,10.645302490234375,1.3879495651483535,0.8531406776577234,-2.361472525987029
1701290245452378600,10.655378662109374,0.5779717739233747,0.8321446513801812,-2.0705422452256084
1701290245462453200,10.665453369140625,-0.11151154245045035,0.8405927462518215,-0.8342866318449378
1701290245472529400,10.675529296875,-0.618090981811285,0.6989525709867477,0.4653142032429576
1701290245482604500,10.6856044921875,-0.6378408074200153,0.5201584308475256,1.2053992873460053
1701290245492680400,10.695680419921874,-0.43017303949594493,0.26579496272206304,1.4166738475903868
1701290245502756400,10.70575634765625,-0.09765377055499702,-0.02551438048481941,1.0542477718919514
1701290245512831500,10.71583154296875,0.27491927635483443,-0.2064192291676998,0.4934826053678989
1701290245522907400,10.725907470703126,0.5149274713914841,-0.29873569381535053,0.08726970265209674
1701290245532982300,10.735982177734375,0.5840413396280258,-0.4544020563453436,-0.193962483176589
1701290245543058400,10.746058349609376,0.6778629481416195,-0.588213729941845,-0.28752690205872056
1701290245553133600,10.756133544921875,0.8193675873935222,-0.5572118579566478,-0.37708939182311296
1701290245563209500,10.76620947265625,0.8659060512065887,-0.44538405263125896,-0.3729790338948369
1701290245573284400,10.776284423828125,0.8182698552846908,-0.40630175004303454,-0.3570288928300142
1701290245583360500,10.786360595703124,0.6901777283787727,-0.4310340402394533,-0.44700551635324953
1701290245593435600,10.796435546875,0.4651052366673946,-0.4782616553604603,-0.543214604525268
1701290245603511300,10.80651123046875,0.2666238147616386,-0.43792146166563034,-0.6585109627440572
1701290245613587500,10.81658740234375,0.1944013860505074,-0.33531624271571636,-0.8150652140244841
1701290245623662600,10.82666259765625,0.23936514789275823,-0.2938356468141079,-0.949924058586359
1701290245633738500,10.836738525390626,0.36814459947571154,-0.3032242374062538,-1.04721948069036
1701290245643813400,10.8468134765625,0.5192272874772549,-0.22335691996514795,-0.9568673018530011
1701290245653889500,10.8568896484375,0.6608077684443444,-0.018767244312167166,-0.7313198861062526
1701290245663964400,10.86696435546875,0.7274350805621593,0.12664952688217163,-0.4890864162355661
1701290245674040600,10.87704052734375,0.6850140620052814,0.010296937608718871,-0.31469372592568395
1701290245684115500,10.887115478515625,0.5051857565127312,-0.23191081329882143,-0.08062704976722597
1701290245694191400,10.89719140625,0.31331308522224427,-0.35717093164920805,0.19574308298304677
1701290245704266500,10.9072666015625,0.1750607257645577,-0.2704904270619154,0.4560859177790582
1701290245714342400,10.91734228515625,0.11569792475700377,-0.06772270613908768,0.5226901412822306
1701290245724418300,10.927418212890625,-0.01586655443459749,0.022811551266908644,0.33688656077235934
1701290245734493400,10.937493408203125,-0.16322408443316816,-0.07085282085835934,0.11580255417525767
1701290245744569600,10.947569580078126,-0.16404942934140562,-0.1617851376712322,0.032220015603303905
1701290245754644500,10.95764453125,-0.014662147080898283,-0.19614801052212713,0.054675154647976155
1701290245764720400,10.967720458984376,0.16249956955090164,-0.18431962556242942,0.11201850559189915
1701290245774795500,10.97779541015625,0.25249007546901703,-0.15991759023368357,0.24947131216973065
1701290245784871400,10.987871337890626,0.23082082610502838,-0.21889584890305994,0.3756026603966951
1701290245794946600,10.997946533203125,0.1470857273198664,-0.3527560378164053,0.5473112261891365
1701290245805022500,11.0080224609375,0.09089563806429504,-0.45450259411036964,0.7860340575903654
1701290245815097300,11.018097412109375,0.061674950407445424,-0.4857838675588369,0.9921401291556656
1701290245825173500,11.028173583984374,0.014874913048744201,-0.39113808318078513,1.1490415864385664
1701290245835249400,11.03824951171875,-0.0028172493778169153,-0.2698778481215238,1.2130286131806671
1701290245845324500,11.048324462890625,-0.03749722535386681,-0.21838030059635638,1.1894092526622115
1701290245855400400,11.058400390625,-0.0868893250323832,-0.2812608274012804,1.2138837687052786
1701290245865475300,11.068475341796875,-0.06382993648424744,-0.30531331863999367,1.2036170801043509
1701290245875551500,11.078551513671876,-0.009406272379308939,-0.26492344058454037,1.2068132457971572
1701290245885626600,11.088626708984375,-0.0004701017297804355,-0.08922434385120868,1.230306203456968
1701290245895702300,11.098702392578126,-0.11345306843966245,0.09102934744656085,1.1835476671524345
1701290245905777400,11.10877734375,-0.3624780981466174,0.1857896981149912,1.0674487603791059
1701290245915853600,11.118853515625,-0.6944681190490722,0.19748072043061254,0.9262661196231842
1701290245925929500,11.128929443359375,-1.047702588032186,0.1435603296726942,0.7949094379633664
1701290245936004400,11.13900439453125,-1.4183821128129959,0.10305354723930359,0.6645661711297929
1701290245946080500,11.14908056640625,-1.7718252561107277,0.09700842185616493,0.6168884741537273
1701290245956155600,11.15915576171875,-1.9420339387342334,0.11295710161626338,0.6872953048102557
1701290245966231300,11.169231201171876,-1.8995368592664599,0.09349719886481761,0.8193925757043063
1701290245976306400,11.179306396484375,-1.619526324187219,0.0469733480989933,1.0402680541172622
1701290245986382600,11.189382568359376,-1.28317986164093,-0.01185293487906456,1.2899496480368078
1701290245996457200,11.199457275390625,-1.0140785508498549,-0.10633271504044532,1.6800931672222912
1701290246006533400,11.209533447265626,-0.7382613758072256,0.1841203035980463,2.393580897909403
1701290246016608500,11.2196083984375,-0.3331717780329287,0.5587538267016411,2.9001521174311637
1701290246026684400,11.229684326171874,0.07561404391080141,0.5985796411335468,2.9988293492823836
1701290246036760300,11.23976025390625,0.21587357847243546,0.32890637567341324,2.9440657856985926
1701290246046835500,11.24983544921875,0.05684460764154792,0.1620773986160755,3.0654478935718537
1701290246056911400,11.259911376953125,-0.35589696619063615,0.5301835657775402,3.200441470429301
1701290246066986500,11.269986572265625,-0.8917419187307357,1.1061784501373768,3.013471038097143
1701290246077062400,11.2800625,-1.311979255145788,1.5347271033018826,2.5485817822679877
1701290246087137500,11.290137451171875,-1.5067515934005378,1.7147189287930726,2.033988292071223
1701290246097213400,11.30021337890625,-1.5489038049533963,1.7902479247689247,1.7985551498651504
1701290246107288300,11.310288330078125,-1.585412603791803,1.8388766388595104,1.712401884022355
1701290246117364500,11.320364501953126,-1.8173920984126626,1.878130206361413,1.5425044593051076
1701290246127439600,11.330439697265625,-2.176893957227468,1.7019126387119292,1.1475813046276568
1701290246137515500,11.340515625,-2.405778700703382,1.5044775109887123,0.751696319180727
1701290246147591400,11.35059130859375,-2.357475126913935,1.4801923800379038,0.5133015506900847
1701290246157666600,11.36066650390625,-2.2321689774647355,1.4292927984058856,0.3748126790627837
1701290246167742500,11.370742431640625,-2.1255435630880295,1.159821192997694,0.2976379617065191
1701290246177817300,11.3808173828125,-2.0391969666302203,0.6927122152924537,0.35079672044217586
1701290246187893500,11.3908935546875,-1.7755004374921322,0.12712649674415588,0.5559263481907546
1701290246197969200,11.40096923828125,-1.0742810906171798,-0.39252924527823924,0.8692530235469341
1701290246208045300,11.41104541015625,-0.10106617281436919,-0.7982745304822921,1.220191490547359
1701290246218120200,11.4211201171875,0.8687702084660529,-1.002108419331908,1.4416529521547257
1701290246228196000,11.431196044921874,1.4752210213661192,-1.0061462965458632,1.5362325394287704
1701290246238271200,11.441271240234375,1.7241349919140339,-0.8076455854177474,1.4474471715167163
1701290246248347400,11.451347412109374,1.5051245767205952,-0.43970542247295374,1.2044412559688091
1701290246258423000,11.461423095703125,1.4036328719705342,0.013904022189974784,0.7303878659531474
1701290246268498200,11.471498291015624,1.4814461794912814,0.47089434146285053,0.09134323570132255
1701290246278574300,11.48157421875,1.600344946116209,0.7678688708245753,-0.6665291417658329
1701290246288649000,11.49164892578125,1.6069459518164395,0.9262526756197214,-1.3673665035858749
1701290246298725000,11.50172509765625,1.395095345249772,1.1256956360340118,-1.7822218547016382
1701290246308800300,11.51180029296875,1.0456927095144986,1.4182967726171016,-1.9252835872024296
1701290246318876200,11.521876220703126,0.8706606253225356,1.701646096730232,-1.8431334195211528
1701290246328951000,11.531950927734375,0.7404694072455167,1.8384435081392525,-1.7600974089160561
1701290246339027200,11.542027099609374,0.4869820643674582,1.5825801568448543,-1.6636872452139853
1701290246349103000,11.55210302734375,0.3660737845510244,1.070379407003522,-1.5395625606343148
1701290246359178200,11.56217822265625,0.5172989497631788,0.6223480547338723,-1.3382894621834158
1701290246369254100,11.572254150390625,0.7617940078902989,0.27606735041141506,-1.1683677798077463
1701290246379329300,11.582329345703124,0.9789666862625628,0.08679448635578155,-1.0496265418320894
1701290246389405200,11.5924052734375,1.0008147993247956,0.0030459435671567913,-1.1240364706501365
1701290246399480000,11.60247998046875,0.9090402595341205,0.01995616183578968,-1.1618038912475108
1701290246409556200,11.61255615234375,0.7932464731872081,-0.010659341180324553,-1.0413599410071968
1701290246419631400,11.62263134765625,0.7045494411457329,-0.031106501403450965,-0.9469038339823483
1701290246429707300,11.632707275390626,0.6232325094182044,-0.01040332059264183,-0.9857689866885543
1701290246439782100,11.6427822265625,0.6097206283509731,0.06341945598721503,-1.0755240764155984
1701290246449858300,11.6528583984375,0.6855723534751683,0.11445523121953009,-1.3389219148680567
1701290246459934200,11.662934326171875,0.723193935861066,0.07924129449725151,-1.6731734509617089
1701290246470009000,11.673009033203124,0.7057530447818339,-0.11006605634987354,-2.007421772184968
1701290246480085200,11.683085205078125,0.7386053669393062,-0.288488440567255,-2.2797286010190843
1701290246490160000,11.69316015625,0.7985036630630493,-0.4734183069825172,-2.3778370930716393
1701290246500236300,11.703236328125,0.8795717345960438,-0.5738555342435836,-2.489850484097004
1701290246510311200,11.713311279296875,0.9520026184260845,-0.6030921501219272,-2.5911864137634635
1701290246520387000,11.723386962890626,1.0241238517850637,-0.5838859298706054,-2.7034125707566736
1701290246530462200,11.733462158203125,1.0521551835268734,-0.5920926172018051,-2.826972607190907
1701290246540538400,11.743538330078126,1.042851348608732,-0.6199070913225412,-2.9039120544865726
1701290246550613200,11.75361328125,0.9702486153431236,-0.6430015511840581,-2.898023288708925
1701290246560689200,11.763689208984376,0.8391162439584732,-0.6502157203465699,-2.7663345986157655
1701290246570765300,11.773765380859375,0.7463280701458453,-0.6467138497054576,-2.508196288126707
1701290246580840200,11.783840087890624,0.7287813075393438,-0.633997575995326,-2.19561560883224
1701290246590916000,11.793916015625,0.7254828505158424,-0.6216466284662485,-1.824958588144183
1701290246600991200,11.8039912109375,0.7213819910682737,-0.6270534559458494,-1.4575418645516036
1701290246611067400,11.8140673828125,0.631167467135936,-0.6521984185963868,-1.1167173798084258
1701290246621142300,11.824142333984375,0.49461964657381174,-0.6788871035575866,-0.825699713024497
1701290246631218200,11.83421826171875,0.365151409009099,-0.6794932527571916,-0.5553422646924853
1701290246641293300,11.844293212890625,0.19741174684762955,-0.7077402730762958,-0.2592179224193096
1701290246651369200,11.854369140625,-0.053269087242335075,-0.7461947991549969,0.07030746193528174
1701290246661444000,11.864444091796875,-0.3727854110188782,-0.7498533216625451,0.503713784264028
1701290246671520300,11.874520263671876,-0.8313046934247016,-0.6476274574190378,1.0188578940808772
1701290246681596200,11.88459619140625,-1.2416209398061036,-0.3848573954761028,1.519916195400059
1701290246691671000,11.894671142578124,-1.4554419696629046,-0.06378945834338665,2.0061083514988423
1701290246701747200,11.904747314453125,-1.4855278958469629,0.03230126414597034,2.4875927682980894
1701290246711822300,11.914822265625,-1.3315706753224135,0.054178749433159826,2.80550984018445
1701290246721898000,11.92489794921875,-1.0682476556718348,0.07012626014947891,2.882172808626294
1701290246731973000,11.93497314453125,-0.886746521596238,-0.009660977792739868,2.789028660982847
1701290246742049300,11.94504931640625,-0.9118379274286329,-0.2027244663029909,2.5029022733718156
1701290246752124400,11.95512451171875,-1.1755939316689967,-0.35226387038528917,2.0397636606022713
1701290246762200000,11.965199951171876,-1.623687243258953,-0.4794838906317949,1.6877736387223004
1701290246772276200,11.975276123046875,-2.142359819462895,-0.7593675844609737,1.597103772237897
1701290246782351400,11.985351318359376,-2.558756262540817,-1.0777508125543593,1.5355910266548394
1701290246792427300,11.99542724609375,-2.5202567282766104,-1.520162571376562,1.3371204184040426
1701290246802502100,12.005502197265624,-1.960675218579173,-2.1665566876083613,0.9304042423412203
1701290246812578300,12.015578369140625,-0.9318960883341729,-2.476063950806856,0.08647066122889518
1701290246822653200,12.025653076171874,0.26683665379472077,-1.6975550280243157,-1.2078931499883532
1701290246832729000,12.03572900390625,1.5425193646132944,-0.14653788417875765,-2.5113512450262903
1701290246842804200,12.04580419921875,2.6950685207813976,1.0298632722198962,-3.483273784931004
1701290246852880100,12.055880126953125,3.1491181104272603,1.0237234542906284,-4.072314613346755
1701290246862955000,12.065955078125,3.1222564069867134,-0.06775836197435856,-4.342871968165039
1701290246873031200,12.07603125,2.602705294382572,-0.7831769145935773,-4.303065735216438
1701290246883107000,12.086107177734375,1.113682542157173,0.2634615513384342,-3.723733523127436
1701290246893182200,12.09618212890625,-1.371702779224515,2.44492997687459,-1.5592060032591222
1701290246903258000,12.106258056640625,-4.309799135124683,4.791449263879657,1.445310744009912
1701290246913333200,12.116333251953124,-5.544872845244408,6.242668062889575,4.1337326663836835
1701290246923409200,12.1264091796875,-5.203340212231875,5.265501777112483,5.425783524483442
1701290246933484000,12.136484130859374,-4.871866031897068,2.436565468633175,5.378252542501688
1701290246943560200,12.146560302734375,-3.9516111353874206,-0.37341362591981886,4.441958657599986
1701290246953635300,12.15663525390625,-2.8137954379707573,-1.5715893917530774,3.4297239810511466
1701290246963711200,12.166711181640625,-2.121914412805438,-1.7175842550963163,2.356975506828725
1701290246973786000,12.1767861328125,-1.741494122993946,-1.5419821889966725,1.2002791678532958
1701290246983862300,12.1868623046875,-0.5479267277389764,-1.350810797843337,-0.07915975369364023
1701290246993938200,12.196938232421875,2.078942701563239,-1.1276263118356467,-1.553812912043929
1701290247004013300,12.207013427734376,5.079525616514682,-0.7235942602902651,-2.7782687820374963
1701290247014089200,12.217089111328125,6.7546677372008554,-0.5610919142603874,-3.313091698053479
1701290247024164000,12.2271640625,6.425261010789871,-0.7405822199702262,-3.160436500038206
1701290247034240300,12.237240234375,4.946874803391099,-0.9145996472269297,-2.813141942498088
1701290247044315100,12.247315185546874,3.4074458060085773,-0.9570312602430582,-2.017929429934919
1701290247054391000,12.25739111328125,1.6607669738531112,-0.7926245418965816,-0.38894320348501205
1701290247064466200,12.267466064453124,-1.2148849085718392,-0.39670273157060143,1.66161774546355
1701290247074542300,12.277542236328125,-3.6084839266598223,0.13376082019209862,3.6323236519306894
1701290247084618000,12.287617919921875,-2.2803239365637302,0.44750995874404903,4.204156448175013
1701290247094693000,12.297693115234376,-0.40629298221468924,0.41440030082464213,3.5902643793582913
1701290247104769300,12.307769287109375,0.30346739851236343,0.3801607620924711,1.9555679585680363
1701290247114844200,12.31784423828125,0.6196177529871464,0.6667267101645469,-0.307274681840837
1701290247124920000,12.327920166015625,0.9829168121278286,1.0221019905686377,-1.879157795843482
1701290247134995200,12.3379951171875,1.470643045926094,1.1024006851643324,-2.7506849018022415
1701290247145071400,12.3480712890625,1.7779986840486526,1.0165098696500063,-3.056873249711096
1701290247155146200,12.358146240234374,1.2403741546154021,0.9583084405720234,-3.070256755158305
1701290247165222100,12.36822216796875,0.35198972961902614,0.9451882622361183,-2.8379230402722952
1701290247175297300,12.37829736328125,-0.5382756868183612,0.790531369009614,-1.8780986421793697
1701290247185373200,12.388373291015625,-1.0860405019938946,0.43132805474996566,-0.2859770422682166
1701290247195448600,12.398448486328125,-0.9523463172972202,0.045481063714623446,0.8042173645347356
1701290247205523700,12.408523681640625,-0.5185222810130566,-0.3433323759108782,1.3027554997265338
1701290247215599600,12.418599609375,-0.06065576342754066,-0.7380588389724493,1.3616642002910375
1701290247225674800,12.4286748046875,0.5726162747722119,-1.0477332754313946,1.335129829108715
1701290247235750700,12.438750732421875,1.183151726637408,-1.2195160755038261,1.2427327004402875
1701290247245825500,12.448825439453126,1.4626514626502989,-1.1014438228309154,1.0646174824759365
1701290247255901700,12.458901611328125,1.4720856459498404,-0.827038852673769,0.790982619908452
1701290247265976600,12.4689765625,1.2894155411601065,-0.5699456673234701,0.4159282410442829
1701290247276052700,12.479052734375,0.9113570851091295,-0.4641378529399633,0.00902735606431961
1701290247286128600,12.489128662109374,0.44616088222265243,-0.5749497592210769,-0.3766664902359247
1701290247296203500,12.49920361328125,0.06582527501992881,-0.6858972745805978,-0.561267855349183
1701290247306279700,12.50927978515625,-0.049154783791303634,-0.6104442664504051,-0.543889727307856
