time,seconds_elapsed,z,y,x
1701290234815127300,0.018127197265625,-0.0017339842161163688,-0.00031798143754713237,-0.014825551770627499
1701290234825202400,0.028202392578125,-0.004493818152695894,-0.013768009841442108,-0.034762509167194366
1701290234835278600,0.038278564453125,-0.007071757689118385,-0.011804195120930672,-0.04724021628499031
1701290234845353700,0.048353759765625,-0.017886055633425713,-0.010076869279146194,-0.04965490475296974
1701290234855429400,0.058429443359375,-0.017831994220614433,-0.01653902977705002,-0.029021264985203743
1701290234865504500,0.06850439453125,-0.022337796166539192,-0.01458719838410616,-0.008015049621462822
1701290234875580700,0.07858056640625,-0.02364381030201912,-0.0022562299855053425,0.004173972178250551
1701290234885655300,0.0886552734375,-0.012824985198676586,0.021864285692572594,0.01876969262957573
1701290234895731500,0.0987314453125,-0.011590076610445976,0.054784152656793594,0.028985844925045967
1701290234905806600,0.108806640625,-0.017856229096651077,0.08604300767183304,0.03837615251541138
1701290234915882500,0.118882568359375,-0.03286607190966606,0.12819817662239075,0.027841484174132347
1701290234925958400,0.12895849609375,-0.05312473699450493,0.17599765956401825,-0.002645584288984537
1701290234936033500,0.139033447265625,-0.08025568723678589,0.18074022233486176,-0.06608022004365921
1701290234946109400,0.149109375,-0.15123559534549713,0.19135132431983948,-0.16641400754451752
1701290234956184300,0.159184326171875,-0.17706160247325897,0.16861937940120697,-0.22884197533130646
1701290234966260500,0.169260498046875,-0.20613080263137817,0.11769600957632065,-0.21404491364955902
1701290234976335600,0.179335693359375,-0.2168084681034088,0.10925831645727158,-0.19527335464954376
1701290234986411500,0.18941162109375,-0.20438483357429504,0.1289995312690735,-0.16237320005893707
1701290234996486400,0.199486328125,-0.19653356075286865,0.13287895917892456,-0.1550806611776352
1701290235006562600,0.2095625,-0.18878082931041718,0.16976720094680786,-0.1600104421377182
1701290235016637400,0.219637451171875,-0.1863216757774353,0.19904546439647675,-0.1668662130832672
1701290235026713300,0.22971337890625,-0.17625412344932556,0.23185932636260986,-0.1680326759815216
1701290235036788500,0.23978857421875,-0.16208744049072266,0.1875123679637909,-0.16190208494663239
1701290235046864400,0.249864501953125,-0.10415676236152649,0.14582830667495728,-0.13952940702438354
1701290235056940500,0.2599404296875,-0.13140782713890076,0.24308082461357117,-0.11004607379436493
1701290235067015400,0.270015380859375,-0.16852989792823792,0.35562947392463684,-0.09450546652078629
1701290235077091300,0.28009130859375,-0.1726687103509903,0.4532196819782257,-0.10753444582223892
1701290235087166500,0.29016650390625,-0.17931436002254486,0.4675613343715668,-0.15753689408302307
1701290235097242600,0.30024267578125,-0.17940092086791992,0.3560830056667328,-0.19604487717151642
1701290235107317500,0.3103173828125,-0.15667909383773804,0.22531834244728088,-0.1864050328731537
1701290235117393400,0.320393310546875,-0.15297330915927887,0.18162918090820312,-0.16010898351669312
1701290235127468500,0.330468505859375,-0.16279824078083038,0.18393175303936005,-0.12814971804618835
1701290235137544400,0.34054443359375,-0.16448135673999786,0.21620020270347595,-0.09325617551803589
1701290235147619600,0.35061962890625,-0.17784403264522552,0.2681662142276764,-0.07122491300106049
1701290235157695500,0.360695556640625,-0.22132493555545807,0.3427070081233978,-0.05939914286136627
1701290235167771600,0.370771728515625,-0.29309606552124023,0.45740562677383423,-0.06240585446357727
1701290235177846800,0.3808466796875,-0.33590930700302124,0.5753951072692871,-0.060508351773023605
1701290235187922700,0.390922607421875,-0.38498255610466003,0.6731187701225281,-0.06634839624166489
1701290235197997800,0.400997802734375,-0.42626237869262695,0.7567790150642395,-0.06536302715539932
1701290235208073700,0.41107373046875,-0.4727688729763031,0.8390986919403076,-0.0886763408780098
1701290235218148600,0.421148681640625,-0.5805211663246155,0.9514371752738953,-0.20307189226150513
1701290235228224800,0.431224853515625,-0.7605106234550476,0.9884423613548279,-0.44954079389572144
1701290235238300000,0.4412998046875,-0.9807535409927368,0.9402031898498535,-0.7499895691871643
1701290235248375800,0.451375732421875,-1.1787006855010986,0.8108103275299072,-1.0008907318115234
1701290235258450700,0.46145068359375,-1.2994276285171509,0.6750668287277222,-1.171048641204834
1701290235268526800,0.47152685546875,-1.3325453996658325,0.6006029844284058,-1.3034839630126953
1701290235278602800,0.481602783203125,-1.36614191532135,0.6119270324707031,-1.369490385055542
1701290235288678000,0.491677978515625,-1.4008575677871704,0.6191463470458984,-1.3481522798538208
1701290235298753800,0.50175390625,-1.4439986944198608,0.6403576135635376,-1.2616286277770996
1701290235308829000,0.511828857421875,-1.4795241355895996,0.7007860541343689,-1.2044119834899902
1701290235318904800,0.52190478515625,-1.5218369960784912,1.0498801469802856,-1.110076665878296
1701290235328979700,0.531979736328125,-1.551076889038086,1.8330228328704834,-0.934110164642334
1701290235339055900,0.542055908203125,-1.7393895387649536,1.9632447957992554,-1.0867822170257568
1701290235349130800,0.552130859375,-1.9034004211425781,1.7267416715621948,-1.275665044784546
1701290235359207000,0.56220703125,-1.98757004737854,1.5197861194610596,-1.3602406978607178
1701290235369281800,0.57228173828125,-2.052464723587036,1.3706954717636108,-1.3203129768371582
1701290235379357700,0.582357666015625,-2.1327056884765625,1.178385615348816,-1.1486703157424927
1701290235389433900,0.592433837890625,-2.187476873397827,0.9004403352737427,-0.8721213340759277
1701290235399508700,0.6025087890625,-2.2042555809020996,0.5720863938331604,-0.5758758187294006
1701290235409584600,0.612584716796875,-2.2076497077941895,0.23769991099834442,-0.28323090076446533
1701290235419659800,0.62265966796875,-2.1805567741394043,0.02448723278939724,-0.08080536872148514
1701290235429736000,0.63273583984375,-2.0928220748901367,-0.02303820662200451,0.008470184169709682
1701290235439810800,0.642810791015625,-2.0979104042053223,0.09055732935667038,0.027646541595458984
1701290235449886700,0.65288671875,-2.22304630279541,0.2943978011608124,-0.04063531011343002
1701290235459961900,0.6629619140625,-2.336113452911377,0.6824890971183777,-0.0645289272069931
1701290235470038000,0.6730380859375,-2.2593605518341064,0.9958816170692444,-0.11547865718603134
1701290235480113700,0.68311376953125,-2.0917747020721436,0.9692888855934143,-0.288148432970047
1701290235490188800,0.693188720703125,-1.7718905210494995,0.6568948030471802,-0.44941216707229614
1701290235500265000,0.703264892578125,-1.5005974769592285,0.2763029634952545,-0.4994380474090576
1701290235510339800,0.71333984375,-1.4280844926834106,-0.0619075745344162,-0.45228785276412964
1701290235520415700,0.723415771484375,-1.4846826791763306,-0.13909503817558289,-0.3562723696231842
1701290235530491000,0.733490966796875,-1.487772822380066,-0.0819353461265564,-0.34657418727874756
1701290235540567000,0.743567138671875,-1.4580655097961426,-0.13811711966991425,-0.4520612061023712
1701290235550641700,0.7536416015625,-1.5315055847167969,-0.26864850521087646,-0.5785925388336182
1701290235560717800,0.7637177734375,-1.743170976638794,-0.407097727060318,-0.6158748865127563
1701290235570793000,0.77379296875,-1.9651126861572266,-0.48543620109558105,-0.5739671587944031
1701290235580868600,0.78386865234375,-2.1037096977233887,-0.4798470437526703,-0.5042868852615356
1701290235590944800,0.79394482421875,-2.082240104675293,-0.4816422760486603,-0.4064537584781647
1701290235601020000,0.80402001953125,-2.0029783248901367,-0.4943082630634308,-0.21106909215450287
1701290235611095800,0.814095703125,-1.8961021900177002,-0.5691388249397278,-0.004010187927633524
1701290235621170700,0.824170654296875,-1.7188587188720703,-0.5603610277175903,0.17616011202335358
1701290235631246800,0.834246826171875,-1.4920495748519897,-0.5096318125724792,0.2669629752635956
1701290235641322000,0.844322021484375,-1.2102274894714355,-0.4329841732978821,0.2699697017669678
1701290235651397600,0.854397705078125,-0.9483274221420288,-0.3605171740055084,0.20781391859054565
1701290235661472800,0.86447265625,-0.7121492624282837,-0.3239583671092987,0.12719230353832245
1701290235671549000,0.874548828125,-0.4945484697818756,-0.3424912989139557,0.04933932051062584
1701290235681623800,0.884623779296875,-0.2821137011051178,-0.37451741099357605,-0.005340969655662775
1701290235691699700,0.89469970703125,-0.14486052095890045,-0.42118293046951294,-0.045290250331163406
1701290235701776000,0.90477587890625,-0.02967320755124092,-0.4992247223854065,-0.04656217619776726
1701290235711851000,0.91485107421875,0.03419898450374603,-0.15040521323680878,-0.25638678669929504
1701290235721927000,0.924927001953125,0.009987653233110905,0.26599013805389404,-0.509567379951477
1701290235732001800,0.935001708984375,0.09690950065851212,0.2569881081581116,-0.5582483410835266
1701290235742078000,0.945077880859375,0.22943611443042755,-0.02924070879817009,-0.4714399576187134
1701290235752152800,0.95515283203125,0.28099626302719116,-0.38642147183418274,-0.33247196674346924
1701290235762228700,0.965228759765625,0.24900636076927185,-0.6216180324554443,-0.21008053421974182
1701290235772304000,0.975303955078125,0.1738186627626419,-0.6947388052940369,-0.12942057847976685
1701290235782379800,0.9853798828125,0.10356128215789795,-0.6230888962745667,-0.0927528366446495
1701290235792454700,0.99545458984375,0.06766266375780106,-0.49313274025917053,-0.0982125848531723
1701290235802530800,1.00553076171875,0.07092397660017014,-0.3668096959590912,-0.13086827099323273
1701290235812606700,1.015606689453125,0.0725274607539177,-0.31330013275146484,-0.17720434069633484
1701290235822681900,1.025681884765625,0.08275613188743591,-0.2716171145439148,-0.19488480687141418
1701290235832757800,1.0357578125,0.08370581269264221,-0.22004368901252747,-0.17955325543880463
1701290235842833000,1.0458330078125,0.051714859902858734,-0.1693488210439682,-0.15040680766105652
1701290235852908800,1.05590869140625,0.0037699707318097353,-0.12155039608478546,-0.12974680960178375
1701290235862983700,1.065983642578125,-0.031023163348436356,-0.06165856868028641,-0.12528415024280548
1701290235873059800,1.076059814453125,-0.027591414749622345,-0.03947257623076439,-0.12680375576019287
1701290235883134700,1.086134765625,-0.010840397328138351,-0.03748985007405281,-0.12664289772510529
1701290235893211000,1.0962109375,-0.0027987160719931126,-0.03296114504337311,-0.11780839413404465
1701290235903285800,1.10628564453125,-0.016819993034005165,-0.011891813017427921,-0.10039184987545013
1701290235913361700,1.116361572265625,-0.03393213450908661,0.00897032581269741,-0.09236615151166916
1701290235923437800,1.126437744140625,-0.03747653588652611,0.03440457955002785,-0.08736792951822281
1701290235933513000,1.136512939453125,-0.03966325521469116,0.06756013631820679,-0.08281445503234863
1701290235943588600,1.146588623046875,-0.04370060935616493,0.09089981019496918,-0.07454107701778412
1701290235953663700,1.156663818359375,-0.0515633262693882,0.0980413481593132,-0.07328273355960846
1701290235963740000,1.166739990234375,-0.06546715646982193,0.08567708730697632,-0.08055556565523148
1701290235973814800,1.176814697265625,-0.04932387173175812,0.07662153989076614,-0.08619560301303864
1701290235983890700,1.186890625,-0.046056441962718964,0.05264456942677498,-0.09526872634887695
1701290235993965800,1.1969658203125,-0.050524160265922546,0.012462794780731201,-0.09859874844551086
1701290236004042000,1.2070419921875,-0.05192311853170395,-0.02070128358900547,-0.10099798440933228
1701290236014116900,1.217116943359375,-0.054492536932229996,-0.042756516486406326,-0.10679835081100464
1701290236024192800,1.22719287109375,-0.04656936600804329,-0.05171139910817146,-0.10531097650527954
1701290236034268000,1.237267822265625,-0.037149231880903244,-0.051919125020504,-0.0977526605129242
1701290236044343800,1.24734375,-0.02930915355682373,-0.05343819037079811,-0.09011124819517136
1701290236054419700,1.257419677734375,-0.022413697093725204,-0.061106495559215546,-0.07835712283849716
1701290236064494800,1.267494873046875,-0.020241355523467064,-0.05903802067041397,-0.07780132442712784
1701290236074571000,1.277571044921875,-0.016203204169869423,-0.05259130522608757,-0.08068206161260605
1701290236084645600,1.287645751953125,-0.010639062151312828,-0.047986965626478195,-0.07994277030229568
1701290236094721800,1.2977216796875,-0.008423046208918095,-0.048465002328157425,-0.07115353643894196
1701290236104797000,1.307796875,-0.0075633772648870945,-0.05957251787185669,-0.059842828661203384
1701290236114872800,1.317872802734375,-0.007953263819217682,-0.06634626537561417,-0.04615125060081482
1701290236124947700,1.32794775390625,-0.007487743627279997,-0.06588367372751236,-0.041359156370162964
1701290236135023900,1.33802392578125,-0.006683735176920891,-0.06998015195131302,-0.040948498994112015
1701290236145099000,1.34809912109375,-0.006338589824736118,-0.06908532977104187,-0.04363003373146057
1701290236155174700,1.358174560546875,-0.005318598821759224,-0.06577981263399124,-0.047923050820827484
1701290236165250800,1.368250732421875,-0.005874666851013899,-0.06641630828380585,-0.05182777717709541
1701290236175326000,1.378325927734375,-0.0075609805062413216,-0.07644790410995483,-0.051477041095495224
1701290236185401900,1.38840185546875,-0.009379919618368149,-0.08381207287311554,-0.050275422632694244
1701290236195477000,1.39847705078125,-0.014243916608393192,-0.08784356713294983,-0.061884138733148575
1701290236205553200,1.40855322265625,-0.010932808741927147,-0.08764410018920898,-0.06893272697925568
1701290236215628000,1.4186279296875,-0.01375203114002943,-0.08042772859334946,-0.07069520652294159
1701290236225704000,1.428703857421875,-0.02058437094092369,-0.06999559700489044,-0.07398048043251038
1701290236235779000,1.438779052734375,-0.021033912897109985,-0.06756226718425751,-0.06996257603168488
1701290236245855000,1.44885498046875,-0.023869913071393967,-0.064387246966362,-0.07398154586553574
1701290236255929900,1.458929931640625,-0.027272367849946022,-0.06360001116991043,-0.0684640109539032
1701290236266006000,1.469006103515625,-0.025359684601426125,-0.05865931883454323,-0.06600192189216614
1701290236276081000,1.479080810546875,-0.028130704537034035,-0.057619888335466385,-0.062245797365903854
1701290236286156800,1.48915673828125,-0.028568794950842857,-0.05093002691864967,-0.05541292577981949
1701290236296233000,1.49923291015625,-0.027425499632954597,-0.04637495428323746,-0.05561212822794914
1701290236306308000,1.50930810546875,-0.029756298288702965,-0.041308559477329254,-0.05618897080421448
1701290236316383700,1.5193837890625,-0.027659591287374496,-0.03888507932424545,-0.06016666814684868
1701290236326459000,1.529458984375,-0.024628113955259323,-0.051779307425022125,-0.05782628059387207
1701290236336535000,1.53953515625,-0.019726034253835678,-0.05957544595003128,-0.05402754992246628
1701290236346610000,1.54960986328125,-0.014218084514141083,-0.06462746113538742,-0.046000249683856964
1701290236356685800,1.559685791015625,-0.010745055973529816,-0.0597059391438961,-0.04313388839364052
1701290236366761000,1.569760986328125,-0.003471963107585907,-0.06067719683051109,-0.040943171828985214
1701290236376837000,1.579837158203125,-0.00013662016135640442,-0.07049733400344849,-0.03256380185484886
1701290236386911700,1.589911865234375,0.001969407545402646,-0.08080403506755829,-0.028307804837822914
1701290236396988000,1.59998779296875,0.005826730281114578,-0.08559586107730865,-0.014277206733822823
1701290236407063000,1.61006298828125,0.01261219847947359,-0.08474471420049667,-0.005900233518332243
1701290236417139000,1.620138916015625,0.018623752519488335,-0.07720424234867096,-0.007847536355257034
1701290236427214800,1.63021484375,0.023797741159796715,-0.07601034641265869,-0.00965848658233881
1701290236437290000,1.6402900390625,0.0235292948782444,-0.08841801434755325,-0.009998305700719357
1701290236447366000,1.650365966796875,0.019409917294979095,-0.100887730717659,-0.0033446638844907284
1701290236457440800,1.660440673828125,0.021025389432907104,-0.10359936207532883,0.00692155584692955
1701290236467517000,1.670516845703125,0.01858620159327984,-0.09686076641082764,0.011566108092665672
1701290236477592000,1.680592041015625,0.021578794345259666,-0.08439184725284576,0.02514929510653019
1701290236487668000,1.69066796875,0.02371465042233467,-0.07709957659244537,0.027728833258152008
1701290236497742800,1.700742919921875,0.024699753150343895,-0.07693632692098618,0.03187670558691025
1701290236507819000,1.710819091796875,0.028871595859527588,-0.0801377147436142,0.03651034086942673
1701290236517894100,1.72089404296875,0.02424621768295765,-0.07138630002737045,0.037522874772548676
1701290236527969800,1.7309697265625,0.022672023624181747,-0.051484763622283936,0.03520645573735237
1701290236538046000,1.7410458984375,0.02604624815285206,-0.02153352089226246,0.037042438983917236
1701290236548121000,1.75112109375,0.028977589681744576,-0.0025885924696922302,0.030968569219112396
1701290236558197000,1.761197021484375,0.03429166227579117,-0.012967197224497795,0.020562533289194107
1701290236568272000,1.77127197265625,0.036799293011426926,-0.032694827765226364,-0.005614476278424263
1701290236578348000,1.78134814453125,0.03495079278945923,-0.045767754316329956,-0.032828520983457565
1701290236588423000,1.7914228515625,0.03787148371338844,-0.05786969140172005,-0.05139394849538803
1701290236598499000,1.8014990234375,0.04099909961223602,-0.05218410864472389,-0.055877380073070526
1701290236608574000,1.811573974609375,0.03801369294524193,-0.0461464561522007,-0.04874303936958313
1701290236618649900,1.82164990234375,0.03597158193588257,-0.05293991416692734,-0.030313696712255478
1701290236628725000,1.83172509765625,0.027122963219881058,-0.058445464819669724,-0.01251286268234253
1701290236638801000,1.84180078125,0.018014686182141304,-0.05215081945061684,-0.006908506155014038
1701290236648876000,1.8518759765625,0.01452621165663004,-0.03265940770506859,0.006261890754103661
1701290236658952000,1.861951904296875,0.013615410774946213,-0.006114884279668331,0.019748670980334282
1701290236669028000,1.872028076171875,0.01703251339495182,0.01691639982163906,0.03668744117021561
1701290236679103000,1.88210302734375,0.019283682107925415,0.03208283334970474,0.04824209585785866
1701290236689179000,1.892178955078125,0.019887421280145645,0.03364744037389755,0.0479012131690979
1701290236699254000,1.90225390625,0.01901310496032238,0.02472931519150734,0.04508625343441963
1701290236709330000,1.912329833984375,0.020300477743148804,0.024943966418504715,0.04062891751527786
1701290236719405000,1.922405029296875,0.023450730368494987,0.020983578637242317,0.04103478416800499
1701290236729481000,1.93248095703125,0.028008198365569115,0.013946708291769028,0.03893142193555832
1701290236739555800,1.942555908203125,0.029270004481077194,0.004403270315378904,0.03127643093466759
1701290236749632000,1.952632080078125,0.03183942288160324,-0.000550475378986448,0.02244112640619278
1701290236759707000,1.962706787109375,0.037087712436914444,-0.0009805759182199836,0.020563598722219467
1701290236769783000,1.972782958984375,0.04086700454354286,0.004173972178250551,0.021277325227856636
1701290236779858000,1.98285791015625,0.03909467160701752,0.009526393376290798,0.02238333597779274
1701290236789933800,1.992933837890625,0.03916577994823456,0.012750416062772274,0.031972046941518784
1701290236800010000,2.003010009765625,0.03778120130300522,0.014248711057007313,0.039754871279001236
1701290236810085000,2.013085205078125,0.028263062238693237,0.012525378726422787,0.04102679342031479
1701290236820160800,2.023160888671875,0.01884319633245468,0.009014267474412918,0.04616563022136688
1701290236830236000,2.03323583984375,0.01709350012242794,0.01913241483271122,0.053294114768505096
1701290236840312000,2.04331201171875,0.02046559378504753,0.03994102403521538,0.05414153262972832
1701290236850387000,2.053386962890625,0.015859389677643776,0.05457828938961029,0.05499347671866417
1701290236860462800,2.063462890625,0.012396215461194515,0.06230438873171806,0.05101205036044121
1701290236870538000,2.0735380859375,0.01329876109957695,0.05795810744166374,0.0460260808467865
1701290236880614100,2.0836142578125,0.009611082263290882,0.04776885360479355,0.035291410982608795
1701290236890689000,2.09368896484375,0.00714606000110507,0.03214168921113014,0.028416460379958153
1701290236900765000,2.103764892578125,0.006295179948210716,0.008926116861402988,0.021224595606327057
1701290236910841000,2.113841064453125,-0.0019797938875854015,0.0021638183388859034,0.01182070653885603
1701290236920916000,2.123916015625,-0.004939098376780748,0.0004141215467825532,0.011657987721264362
1701290236930991900,2.133991943359375,-0.00893810112029314,-0.0007669904152862728,0.01136930100619793
1701290236941067000,2.14406689453125,-0.010179933160543442,-0.004464523401111364,0.006809703074395657
1701290236951143000,2.154142822265625,-0.011271828785538673,-0.010378072038292885,-0.0028969866689294577
1701290236961217800,2.1642177734375,-0.013282249681651592,-0.019958527758717537,-0.0064387246966362
1701290236971294000,2.1742939453125,-0.01203961856663227,-0.02056998945772648,-0.0018985675415024161
1701290236981369000,2.184369140625,-0.009797236882150173,-0.01372060552239418,-0.0005795038305222988
1701290236991445000,2.194445068359375,-0.0027976506389677525,-0.011830294504761696,0.003209641668945551
1701290237001519900,2.204519775390625,-0.0005792375304736197,-0.012600746937096119,0.0037406759802252054
1701290237011596000,2.214595947265625,0.005281314719468355,-0.015065768733620644,0.0016391756944358349
1701290237021672000,2.224671875,0.009328520856797695,-0.013933924958109856,-0.007349259220063686
1701290237031746800,2.234746826171875,0.009542904794216156,-0.024406272917985916,-0.008827313780784607
1701290237041823000,2.244822998046875,0.006564425770193338,-0.03308871015906334,-0.004257062915712595
1701290237051898000,2.254898193359375,0.001853826455771923,-0.04722769930958748,0.0070395334623754025
1701290237061974000,2.26497412109375,-0.0007057376787997782,-0.05955680459737778,0.017890583723783493
1701290237072049000,2.275048828125,0.0014860439114272594,-0.06699074804782867,0.023959394544363022
1701290237082125000,2.285125,0.0019228023011237383,-0.062193866819143295,0.021829131990671158
1701290237092200000,2.295199951171875,0.0026317357551306486,-0.059235624969005585,0.016575781628489494
1701290237102275800,2.30527587890625,0.0033574472181499004,-0.059355735778808594,0.01776248589158058
1701290237112351000,2.31535107421875,0.00410499656572938,-0.052563074976205826,0.020045081153512
1701290237122427000,2.325427001953125,0.004246410448104143,-0.04963519796729088,0.017581656575202942
1701290237132501800,2.335501708984375,0.00236328924074769,-0.058150921016931534,0.012867595069110394
1701290237142578000,2.345577880859375,0.0018969696247950196,-0.06504211574792862,0.011230284348130226
1701290237152653800,2.35565380859375,-0.001184041379019618,-0.06749968230724335,0.011994877830147743
1701290237162729000,2.36572900390625,-0.006806507240980864,-0.06523945927619934,0.013820740394294262
1701290237172804900,2.375804931640625,-0.010802580043673515,-0.06309188157320023,0.023485617712140083
1701290237182880300,2.38588037109375,-0.0139006357640028,-0.06502880156040192,0.032048746943473816
1701290237192956200,2.3959560546875,-0.017783524468541145,-0.0498352013528347,0.034083668142557144
1701290237203031300,2.40603125,-0.01679735630750656,-0.024339428171515465,0.03211425989866257
1701290237213107200,2.416107177734375,-0.017367804422974586,0.0001728391507640481,0.04025820642709732
1701290237223182000,2.42618212890625,-0.010279801674187183,0.01230327133089304,0.04728043079376221
1701290237233258200,2.43625830078125,-0.005055478774011135,0.01386841107159853,0.04319141432642937
1701290237243333000,2.4463330078125,-0.005160673521459103,0.004994758404791355,0.025419339537620544
1701290237253409000,2.456408935546875,-0.014139520935714245,-0.020320717245340347,0.00782809592783451
1701290237263484200,2.466484130859375,-0.015865249559283257,-0.03941185399889946,0.00020666129421442747
1701290237273560300,2.476560302734375,-0.010333331301808357,-0.03695162758231163,0.007172158919274807
1701290237283636000,2.486635986328125,-0.010844924487173557,-0.024949291720986366,0.010400975123047829
1701290237293711000,2.496711181640625,-0.009498164057731628,-0.029917685315012932,0.011395665816962719
1701290237303787300,2.506787353515625,-0.012929380871355534,-0.04559118673205376,0.018451711162924767
1701290237313862100,2.516862060546875,-0.01782267354428768,-0.057070743292570114,0.030240725725889206
1701290237323938000,2.52693798828125,-0.02214205451309681,-0.05210421234369278,0.03453294187784195
1701290237334013200,2.53701318359375,-0.021883461624383926,-0.04083904251456261,0.03573030233383179
1701290237344089300,2.54708935546875,-0.020649883896112442,-0.03158003091812134,0.04050827771425247
1701290237354164200,2.557164306640625,-0.016396550461649895,-0.024595890194177628,0.04409768804907799
1701290237364240100,2.567240234375,-0.014187990687787533,-0.01666473038494587,0.037409424781799316
1701290237374315300,2.577315185546875,-0.008894424885511398,-0.02154364064335823,0.034206707030534744
1701290237384391400,2.587391357421875,-0.0029965888243168592,-0.021811556071043015,0.03813700005412102
1701290237394467000,2.597467041015625,0.00044314999831840396,-0.03075524978339672,0.04915449768304825
1701290237404542200,2.607542236328125,0.006068012677133083,-0.045348573476076126,0.05928649380803108
1701290237414618400,2.617618408203125,0.021156417205929756,-0.05151858553290367,0.05284350737929344
1701290237424693000,2.62769287109375,0.03386582061648369,-0.0521090067923069,0.032707877457141876
1701290237434769200,2.63776904296875,0.040472857654094696,-0.06727571040391922,0.02779674343764782
1701290237444844300,2.64784423828125,0.04104384034872055,-0.08454710990190506,0.046541135758161545
1701290237454920200,2.657920166015625,0.03917723149061203,-0.08634766936302185,0.06926349550485611
1701290237464995000,2.6679951171875,0.03550233319401741,-0.06831221282482147,0.07378207892179489
1701290237475071200,2.6780712890625,0.035882368683815,-0.0502525195479393,0.06619153916835785
1701290237485146400,2.688146484375,0.03708851337432861,-0.048655152320861816,0.06921742111444473
1701290237495222000,2.698221923828125,0.04023849964141846,-0.02901247702538967,0.06955084949731827
1701290237505297200,2.708297119140625,0.035344939678907394,-0.002808569697663188,0.062430087476968765
1701290237515373300,2.718373291015625,0.027759991586208344,0.017243968322873116,0.054430484771728516
1701290237525448200,2.7284482421875,0.024091754108667374,0.018027469515800476,0.05170580372214317
1701290237535524000,2.738524169921875,0.02010153979063034,0.008540225215256214,0.05867689475417137
1701290237545600300,2.748600341796875,0.011538677848875523,0.02232661098241806,0.04866261035203934
1701290237555675400,2.75867529296875,0.004226969089359045,0.030977623537182808,0.023975640535354614
1701290237565751300,2.768751220703125,-0.0016056197928264737,0.028776787221431732,0.011354653164744377
1701290237575826200,2.778826171875,-0.011362909339368343,0.03111743927001953,0.016510266810655594
1701290237585902300,2.78890234375,-0.01949034444987774,0.04176342487335205,0.008686166256666183
1701290237595977200,2.798977294921875,-0.02448164112865925,0.035296469926834106,0.0010732539230957627
1701290237606053000,2.80905322265625,-0.024028902873396873,0.021986259147524834,-0.002538258908316493
1701290237616128300,2.819128173828125,-0.027125360444188118,0.01575872302055359,-0.009106412529945374
1701290237626204200,2.8292041015625,-0.024417458102107048,0.007063235621899366,-0.017461281269788742
1701290237636279000,2.839279052734375,-0.019941750913858414,0.0018524948973208666,-0.02598446235060692
1701290237646355200,2.849355224609375,-0.02177613601088524,-0.003245860803872347,-0.037763092666864395
1701290237656430300,2.859430419921875,-0.024929318577051163,-0.00686243362724781,-0.04782318323850632
1701290237666506200,2.86950634765625,-0.031496141105890274,-0.020556939765810966,-0.04700692370533943
1701290237676582100,2.87958203125,-0.042808983474969864,-0.03717320039868355,-0.04505828768014908
1701290237686657300,2.8896572265625,-0.047863662242889404,-0.05556099861860275,-0.032822929322719574
1701290237696733200,2.899733154296875,-0.04833770543336868,-0.07284624129533768,-0.02581002563238144
1701290237706808000,2.90980810546875,-0.04108112305402756,-0.08186450600624084,-0.026249980553984642
1701290237716884200,2.91988427734375,-0.030362432822585106,-0.07398740947246552,-0.03207644447684288
1701290237726959000,2.929958984375,-0.018381670117378235,-0.05782335251569748,-0.030826356261968613
1701290237737035300,2.94003515625,-0.00893810112029314,-0.03491430729627609,-0.02395460195839405
1701290237747110100,2.950110107421875,-0.008300273679196835,-0.016151539981365204,-0.016276175156235695
1701290237757186000,2.96018603515625,-0.014307833276689053,-0.006554571911692619,-0.006567088887095451
1701290237767261200,2.97026123046875,-0.016589894890785217,0.0018559569725766778,0.007947671227157116
1701290237777337300,2.98033740234375,-0.016513463109731674,0.02009088732302189,0.017255952581763268
1701290237787412200,2.990412109375,-0.01290621142834425,0.048946771770715714,0.03255448117852211
1701290237797488000,3.000488037109375,-0.00984277669340372,0.07370378077030182,0.03682539239525795
1701290237807564300,3.010564208984375,-0.006385727785527706,0.07597119361162186,0.03310415893793106
1701290237817639200,3.02063916015625,-0.010724017396569252,0.04451553523540497,0.03471403941512108
1701290237827715000,3.030715087890625,-0.02002537250518799,0.015353656373918056,0.02257242053747177
1701290237837790200,3.040790283203125,-0.028236432000994682,0.006200371775776148,0.02117186412215233
1701290237847866400,3.050866455078125,-0.03215287625789642,0.009572732262313366,0.02292848564684391
1701290237857941200,3.060941162109375,-0.02684546262025833,0.032592032104730606,0.026504045352339745
1701290237868017200,3.07101708984375,-0.01991218887269497,0.06729435175657272,0.021615546196699142
1701290237878092300,3.08109228515625,-0.02214285358786583,0.08712770789861679,0.004505269695073366
1701290237888168200,3.091168212890625,-0.028384502977132797,0.0813654288649559,-0.013429788872599602
1701290237898243000,3.1012431640625,-0.03676973283290863,0.07759146392345428,-0.02123098634183407
1701290237908319200,3.1113193359375,-0.051054660230875015,0.08332818001508713,-0.025129055604338646
1701290237918394000,3.12139404296875,-0.059491291642189026,0.09561653435230255,-0.02407284639775753
1701290237928470000,3.131469970703125,-0.06084497645497322,0.09631002694368362,-0.019452793523669243
1701290237938545200,3.141545166015625,-0.05968303605914116,0.09675396978855133,-0.016025038436055183
1701290237948621300,3.151621337890625,-0.05832402780652046,0.09507112205028534,-0.014196778647601604
1701290237958697000,3.161697021484375,-0.06023005023598671,0.09523490816354752,-0.0065018413588404655
1701290237968772000,3.171772216796875,-0.05903588980436325,0.09463515877723694,-0.0012572783743962646
1701290237978848300,3.18184814453125,-0.061055365949869156,0.09275417029857635,0.0015134743880480528
1701290237988923400,3.19192333984375,-0.05951499193906784,0.09169822931289673,0.006333795841783285
1701290237998999000,3.2019990234375,-0.06046227738261223,0.08499212563037872,0.009106412529945374
1701290238009074200,3.21207421875,-0.05563929304480553,0.07820239663124084,0.007924235425889492
1701290238019150300,3.222150390625,-0.046847399324178696,0.06294994056224823,-0.009929330088198185
1701290238029225200,3.23222509765625,-0.041241977363824844,0.04406332969665527,-0.029019933193922043
1701290238039301000,3.242301025390625,-0.04188992455601692,0.011019094847142696,-0.04025794193148613
1701290238049376300,3.252376220703125,-0.041909899562597275,-0.010447048582136631,-0.04508572071790695
1701290238059452400,3.262452392578125,-0.04400687292218208,-0.017795242369174957,-0.04297303408384323
1701290238069527000,3.272527099609375,-0.04556775093078613,-0.026871295645833015,-0.036016322672367096
1701290238079603200,3.282603271484375,-0.04904291033744812,-0.031566180288791656,-0.027599137276411057
1701290238089679400,3.292679443359375,-0.05013081058859825,-0.02869955450296402,-0.030179474502801895
1701290238099754000,3.30275390625,-0.05463208630681038,-0.030048713088035583,-0.03591698780655861
1701290238109830100,3.312830078125,-0.054967377334833145,-0.03724031150341034,-0.039574574679136276
1701290238119905300,3.3229052734375,-0.059548281133174896,-0.047291349619627,-0.045407962054014206
1701290238129981200,3.332981201171875,-0.05938902497291565,-0.0537942573428154,-0.051536958664655685
1701290238140056000,3.34305615234375,-0.05795944109559059,-0.055092014372348785,-0.050207775086164474
1701290238150132200,3.35313232421875,-0.06204739212989807,-0.05456018075346947,-0.055744756013154984
1701290238160207400,3.363207275390625,-0.06221330538392067,-0.05904547497630119,-0.0686163455247879
1701290238170283000,3.373282958984375,-0.06377392262220383,-0.06547887623310089,-0.08666485548019409
1701290238180358100,3.383358154296875,-0.06677743047475815,-0.0805443748831749,-0.0909900963306427
1701290238190434000,3.39343408203125,-0.06908027082681656,-0.09755345433950424,-0.08822386711835861
1701290238200509000,3.403509033203125,-0.06933672726154327,-0.09453476220369339,-0.07849027961492538
1701290238210584800,3.413584716796875,-0.06839636713266373,-0.08803611248731613,-0.06528420001268387
1701290238220660000,3.423659912109375,-0.06583520770072937,-0.08024343848228455,-0.045585326850414276
1701290238230736100,3.433736083984375,-0.06245085969567299,-0.07871212065219879,-0.02846306748688221
1701290238240812000,3.44381201171875,-0.05630481615662575,-0.0835830420255661,-0.014415157958865166
1701290238250887000,3.453886962890625,-0.05638737604022026,-0.08350208401679993,-0.012750149704515934
1701290238260963000,3.463963134765625,-0.057863831520080566,-0.08772239834070206,-0.009812151081860065
1701290238271038000,3.474037841796875,-0.05778234079480171,-0.09666582196950912,-0.0012482235906645656
1701290238281113900,3.48411376953125,-0.058043330907821655,-0.09093363583087921,0.003959055058658123
1701290238291189000,3.49418896484375,-0.056534916162490845,-0.09047877043485641,-0.0010183927370235324
1701290238301265000,3.504264892578125,-0.0526091493666172,-0.1061733067035675,-0.0032570459879934788
1701290238311339800,3.51433984375,-0.05645235627889633,-0.1222127303481102,-0.012927782721817493
1701290238321416000,3.524416015625,-0.055062185972929,-0.12957929074764252,-0.019999008625745773
1701290238331491000,3.534490966796875,-0.05823880434036255,-0.13074789941310883,-0.01848233863711357
1701290238341567000,3.54456689453125,-0.05788939818739891,-0.133164182305336,-0.020489029586315155
1701290238351641900,3.554641845703125,-0.06289348006248474,-0.13161368668079376,-0.01775582693517208
1701290238361718000,3.564718017578125,-0.07141133397817612,-0.13198067247867584,-0.024140490218997
1701290238371794000,3.5747939453125,-0.07401563972234726,-0.13132765889167786,-0.026080336421728134
1701290238381868800,3.584868896484375,-0.07509554922580719,-0.12769325077533722,-0.01630919799208641
1701290238391945000,3.594945068359375,-0.07947458326816559,-0.11454389244318008,-0.003993410151451826
1701290238402020000,3.60502001953125,-0.07957977801561356,-0.10862767696380615,0.007927964441478252
1701290238412096000,3.615095947265625,-0.08480516821146011,-0.09836145490407944,0.016231434419751167
1701290238422171000,3.6251708984375,-0.08602489531040192,-0.0921562910079956,0.014252705499529839
1701290238432247000,3.6352470703125,-0.08269301801919937,-0.1006333976984024,0.021929534152150154
1701290238442322000,3.645322021484375,-0.07702048122882843,-0.11145249009132385,0.04086434096097946
1701290238452398000,3.655398193359375,-0.06760460883378983,-0.11221762001514435,0.06353743374347687
1701290238462473000,3.665472900390625,-0.059424176812171936,-0.0949518084526062,0.08131962269544601
1701290238472548900,3.675548828125,-0.05156918615102768,-0.07205874472856522,0.08801987022161484
1701290238482624000,3.6856240234375,-0.04596749320626259,-0.054674431681632996,0.09336323291063309
1701290238492700000,3.695699951171875,-0.04217994213104248,-0.041122667491436005,0.09472064673900604
1701290238502775000,3.705775146484375,-0.03803659975528717,-0.04008403792977333,0.10295914113521576
1701290238512851000,3.715850830078125,-0.03485598415136337,-0.04700133204460144,0.1163516417145729
1701290238522927000,3.725927001953125,-0.03292519226670265,-0.05756529048085213,0.12473154813051224
1701290238533002000,3.736001953125,-0.03662938252091408,-0.060331251472234726,0.13791099190711975
1701290238543078000,3.746077880859375,-0.039637159556150436,-0.06860915571451187,0.1473199427127838
1701290238553153000,3.756153076171875,-0.04301431402564049,-0.07622019946575165,0.16258731484413147
1701290238563229000,3.76622900390625,-0.038188397884368896,-0.07721968740224838,0.17907707393169403
1701290238573304000,3.776303955078125,-0.033367544412612915,-0.07059986889362335,0.19382566213607788
1701290238583380000,3.7863798828125,-0.025972744449973106,-0.06195710971951485,0.19810590147972107
1701290238593454800,3.796454833984375,-0.02167014218866825,-0.056403886526823044,0.19000749289989471
1701290238603531000,3.806531005859375,-0.014585067518055439,-0.0735170915722847,0.18863196671009064
1701290238613606000,3.81660595703125,0.0005803027888759971,-0.10818345844745636,0.19513647258281708
1701290238623682000,3.82668212890625,0.012979181483387947,-0.14702805876731873,0.20774680376052856
1701290238633757000,3.8367568359375,0.028187962248921394,-0.18725164234638214,0.21755681931972504
1701290238643832800,3.846832763671875,0.042152248322963715,-0.22250019013881683,0.22923718392848969
1701290238653909000,3.856908935546875,0.062428757548332214,-0.24477779865264893,0.2482963651418686
1701290238663984000,3.866984130859375,0.08828325569629669,-0.24677276611328125,0.27335458993911743
1701290238674059800,3.877059814453125,0.11884649097919464,-0.23099593818187714,0.30206984281539917
1701290238684135000,3.887135009765625,0.15391500294208527,-0.21163874864578247,0.3305387794971466
1701290238694211000,3.897211181640625,0.19067221879959106,-0.19700707495212555,0.3652554750442505
1701290238704286000,3.907285888671875,0.22658014297485352,-0.1910242885351181,0.4232870936393738
1701290238714361900,3.91736181640625,0.2548123300075531,-0.1944592297077179,0.5063526630401611
1701290238724437000,3.92743701171875,0.28561097383499146,-0.2044745832681656,0.6078143119812012
1701290238734513200,3.93751318359375,0.31808769702911377,-0.20820486545562744,0.7036324739456177
1701290238744587800,3.947587890625,0.3507620096206665,-0.18993957340717316,0.7750080823898315
1701290238754664000,3.957663818359375,0.3801704943180084,-0.18395625054836273,0.8172988295555115
1701290238764739000,3.967739013671875,0.4183826148509979,-0.21614055335521698,0.8457903861999512
1701290238774814700,3.977814697265625,0.455025315284729,-0.25280481576919556,0.8780546188354492
1701290238784889900,3.987889892578125,0.47728586196899414,-0.2784545421600342,0.8894651532173157
1701290238794966000,3.997966064453125,0.4908703863620758,-0.282359778881073,0.8609043955802917
1701290238805042000,4.0080419921875,0.5174886584281921,-0.23616033792495728,0.8102436065673828
1701290238815116800,4.01811669921875,0.5729916095733643,-0.15810148417949677,0.7375659346580505
1701290238825193000,4.02819287109375,0.6430546045303345,-0.06568820029497147,0.638530969619751
1701290238835268000,4.03826806640625,0.7047392725944519,0.0526895746588707,0.503376841545105
1701290238845343700,4.04834375,0.742832601070404,0.2057126760482788,0.3644147217273712
1701290238855419000,4.0584189453125,0.7759577631950378,0.3313819169998169,0.28765547275543213
1701290238865495000,4.0684951171875,0.7956393361091614,0.30385497212409973,0.2634018063545227
1701290238875570200,4.078570068359375,0.799698531627655,0.04451580345630646,0.30018165707588196
1701290238885645800,4.088645751953125,0.7333501577377319,-0.4617026448249817,0.36490553617477417
1701290238895721000,4.098720947265625,0.5752182602882385,-0.9655378460884094,0.3945329189300537
1701290238905797000,4.108797119140625,0.3834643065929413,-1.1646288633346558,0.34845277667045593
1701290238915871700,4.118871826171875,0.2562325894832611,-1.040135383605957,0.21886789798736572
1701290238925948000,4.128947998046875,0.2393057942390442,-0.7695515751838684,0.04794542118906975
1701290238936024000,4.139024169921875,0.2735045254230499,-0.5639059543609619,-0.1053362786769867
1701290238946099000,4.149098876953125,0.311383455991745,-0.4660039246082306,-0.19274096190929413
1701290238956174800,4.1591748046875,0.30949661135673523,-0.45120474696159363,-0.22966036200523376
1701290238966250000,4.16925,0.28056055307388306,-0.49220091104507446,-0.2387169748544693
1701290238976326000,4.179325927734375,0.2450912445783615,-0.528401792049408,-0.2330082207918167
1701290238986400800,4.18940087890625,0.21566730737686157,-0.5408962965011597,-0.2219233363866806
1701290238996477000,4.199476806640625,0.1845453381538391,-0.5171667337417603,-0.2184322029352188
1701290239006552000,4.209552001953125,0.15753476321697235,-0.48730841279029846,-0.22780147194862366
1701290239016628000,4.2196279296875,0.13665638864040375,-0.4743870198726654,-0.23579388856887817
1701290239026702800,4.229702880859375,0.11311483383178711,-0.47826963663101196,-0.24187521636486053
1701290239036779000,4.239779052734375,0.09039807319641113,-0.4985179305076599,-0.23945173621177673
1701290239046854100,4.249854248046875,0.07306861877441406,-0.5145924687385559,-0.21897682547569275
1701290239056930000,4.259929931640625,0.059973057359457016,-0.5234946608543396,-0.18503031134605408
1701290239067006000,4.270005859375,0.03795324265956879,-0.5138484239578247,-0.13619911670684814
1701290239077081000,4.2800810546875,0.009313606657087803,-0.5022884011268616,-0.0854874700307846
1701290239087157000,4.290156982421875,-0.019340408965945244,-0.479758620262146,-0.058639876544475555
1701290239097232000,4.30023193359375,-0.036739639937877655,-0.4587976634502411,-0.05251620337367058
1701290239107308000,4.31030810546875,-0.049856506288051605,-0.42375659942626953,-0.05125226825475693
1701290239117383000,4.3203828125,-0.05561133101582527,-0.36680808663368225,-0.04403803125023842
1701290239127459000,4.330458984375,-0.044556550681591034,-0.2753641903400421,-0.0353260338306427
1701290239137534000,4.340533935546875,-0.018749985843896866,-0.1616877019405365,-0.023489879444241524
1701290239147609900,4.35060986328125,0.023447269573807716,-0.055090416222810745,-0.016884973272681236
1701290239157685000,4.36068505859375,0.04959604889154434,0.019109778106212616,-0.014689730480313301
1701290239167761000,4.370760986328125,0.05427602306008339,0.047754738479852676,-0.0201587975025177
1701290239177836000,4.3808359375,0.02906387485563755,0.047999218106269836,-0.0247799139469862
1701290239187911700,4.39091162109375,-0.01823306642472744,0.03837508708238602,-0.019300993531942368
1701290239197986600,4.400986572265625,-0.060264404863119125,0.02130475640296936,-0.014563496224582195
1701290239208062700,4.411062744140625,-0.08175478130578995,-0.004196076653897762,0.00023861923546064645
1701290239218138600,4.421138671875,-0.08523260802030563,-0.04246996343135834,0.00020746025256812572
1701290239228213800,4.4312138671875,-0.06452040374279022,-0.0997987687587738,-0.033614419400691986
1701290239238289700,4.44128955078125,-0.035708729177713394,-0.16567924618721008,-0.09539362788200378
1701290239248364800,4.45136474609375,-0.026485934853553772,-0.24281610548496246,-0.1705743968486786
1701290239258440700,4.461440673828125,-0.025529595091938972,-0.28352493047714233,-0.23250222206115723
1701290239268515600,4.471515625,-0.016887636855244637,-0.29310324788093567,-0.26756006479263306
1701290239278591700,4.481591796875,0.004879177547991276,-0.282802939414978,-0.2600038945674896
1701290239288666600,4.49166650390625,0.036550555378198624,-0.25820010900497437,-0.22913359105587006
1701290239298742800,4.50174267578125,0.06105722859501839,-0.24304354190826416,-0.22022397816181183
1701290239308817700,4.511817626953125,0.07969456166028976,-0.25892505049705505,-0.2345334142446518
1701290239318893600,4.5218935546875,0.08245359361171722,-0.2797192633152008,-0.2541028559207916
1701290239328968700,4.53196875,0.07008694112300873,-0.29718905687332153,-0.2746909558773041
1701290239339044900,4.542044921875,0.06125563383102417,-0.29514721035957336,-0.29547426104545593
1701290239349120500,4.55212060546875,0.0551958791911602,-0.2719862461090088,-0.31056106090545654
1701290239359195600,4.562195556640625,0.05149061977863312,-0.23644928634166718,-0.3300870954990387
1701290239369271800,4.572271728515625,0.03436543047428131,-0.20003455877304077,-0.3517817258834839
1701290239379346700,4.5823466796875,-0.03653084486722946,-0.14527782797813416,-0.38941219449043274
1701290239389422600,4.592422607421875,-0.14471031725406647,-0.023204654455184937,-0.4378894567489624
1701290239399497700,4.602497802734375,-0.21218335628509521,0.14765895903110504,-0.4667895436286926
1701290239409574000,4.612573974609375,-0.21317192912101746,0.25773701071739197,-0.4471431374549866
1701290239419648800,4.622648681640625,-0.19717831909656525,0.29851746559143066,-0.39990052580833435
1701290239429724700,4.632724609375,-0.21444278955459595,0.3025135397911072,-0.37110644578933716
1701290239439799800,4.6427998046875,-0.23005050420761108,0.24853870272636414,-0.35655972361564636
1701290239449875700,4.652875732421875,-0.24833764135837555,0.1260383576154709,-0.38810351490974426
1701290239459950600,4.66295068359375,-0.24475622177124023,-0.012601546011865139,-0.45886850357055664
1701290239470026800,4.67302685546875,-0.22405627369880676,-0.10416208952665329,-0.5009885430335999
1701290239480102700,4.6831025390625,-0.19215719401836395,-0.06087107211351395,-0.4322909712791443
1701290239490177500,4.693177490234375,-0.1545775979757309,0.058161042630672455,-0.24524012207984924
1701290239500253700,4.703253662109375,-0.10248003900051117,0.14530526101589203,0.012564261443912983
1701290239510328800,4.713328857421875,-0.03782567381858826,0.14989228546619415,0.2369619458913803
1701290239520404500,4.723404541015625,0.022793995216488838,0.17198747396469116,0.3392750024795532
1701290239530479600,4.733479736328125,0.04633154720067978,0.2836977541446686,0.2855715751647949
1701290239540555800,4.7435556640625,0.021510884165763855,0.4230836033821106,0.08897354453802109
1701290239550631000,4.753630859375,-0.015603460371494293,0.515173614025116,-0.16314497590065002
1701290239560706600,4.76370654296875,-0.03257152438163757,0.5936324596405029,-0.3757112920284271
1701290239570781700,4.77378173828125,-0.03639502450823784,0.6559184789657593,-0.5287370681762695
1701290239580857900,4.78385791015625,-0.01465590763837099,0.6898583173751831,-0.6102074384689331
1701290239590932500,4.793932373046875,0.003837615018710494,0.706078290939331,-0.6063447594642639
1701290239601008600,4.804008544921875,-0.005278917960822582,0.6884567141532898,-0.5216932892799377
1701290239611084800,4.814084716796875,-0.055695753544569016,0.6264069080352783,-0.3604964017868042
1701290239621159700,4.82415966796875,-0.11064022779464722,0.5345009565353394,-0.18517224490642548
1701290239631235600,4.834235595703125,-0.15253254771232605,0.42466339468955994,-0.06016373634338379
1701290239641310700,4.844310791015625,-0.16124801337718964,0.271782785654068,-0.05036863312125206
1701290239651386600,4.85438671875,-0.13048318028450012,0.0653342679142952,-0.16087862849235535
1701290239661461500,4.86446142578125,-0.07339059561491013,-0.15086062252521515,-0.3495340347290039
1701290239671537700,4.87453759765625,-0.020168917253613472,-0.38460811972618103,-0.5642447471618652
1701290239681612800,4.88461279296875,0.0003009371866937727,-0.5438326597213745,-0.7375645637512207
1701290239691688700,4.894688720703125,-0.013816745951771736,-0.5524733066558838,-0.815761387348175
1701290239701763600,4.904763671875,-0.04492646083235741,-0.4647311866283417,-0.7961549162864685
1701290239711839700,4.91483984375,-0.07806124538183212,-0.3299291729927063,-0.7063603401184082
1701290239721915000,4.924914794921875,-0.09869515150785446,-0.19444404542446136,-0.5905005931854248
1701290239731990800,4.93499072265625,-0.10865697264671326,-0.07921652495861053,-0.49012070894241333
1701290239742065700,4.945065673828125,-0.11792343854904175,0.04884929955005646,-0.4216071665287018
1701290239752141800,4.955141845703125,-0.11930348724126816,0.16958583891391754,-0.3979029059410095
1701290239762217700,4.9652177734375,-0.1068582758307457,0.24817651510238647,-0.4193229675292969
1701290239772292600,4.975292724609375,-0.08225705474615097,0.25378647446632385,-0.4716287851333618
1701290239782368800,4.98536865234375,-0.041905637830495834,0.2362881600856781,-0.512628972530365
1701290239792443600,4.995443603515625,0.013250557705760002,0.21262678503990173,-0.5008774995803833
1701290239802519800,5.005519775390625,0.08145837485790253,0.1644512563943863,-0.4626440703868866
1701290239812594700,5.0155947265625,0.12831509113311768,0.13002590835094452,-0.4315900206565857
1701290239822670600,5.025670654296875,0.14046257734298706,0.13019448518753052,-0.4164813756942749
1701290239832745700,5.035745849609375,0.11988991498947144,0.1469377875328064,-0.4088524878025055
1701290239842821600,5.045821533203125,0.08742652088403702,0.18053968250751495,-0.3956490755081177
1701290239852896800,5.055896728515625,0.06170171499252319,0.20258933305740356,-0.37007418274879456
1701290239862972700,5.06597265625,0.035825908184051514,0.1931886374950409,-0.34189021587371826
1701290239873047600,5.076047607421875,0.0025390577502548695,0.16777834296226501,-0.3346216678619385
1701290239883123700,5.086123779296875,-0.0246046781539917,0.11725419014692307,-0.3480253517627716
1701290239893199600,5.09619970703125,-0.040764741599559784,0.05104560777544975,-0.3814677298069
1701290239903274800,5.106274658203125,-0.057197507470846176,-0.03299150615930557,-0.407990962266922
1701290239913350700,5.1163505859375,-0.06919372081756592,-0.13500842452049255,-0.42097359895706177
1701290239923425800,5.12642578125,-0.08155744522809982,-0.20299039781093597,-0.43336501717567444
1701290239933501700,5.136501708984375,-0.09699445962905884,-0.22444508969783783,-0.4466419517993927
1701290239943576800,5.146576904296875,-0.10994593799114227,-0.210666686296463,-0.4554674029350281
1701290239953652700,5.15665283203125,-0.11276489496231079,-0.20041725039482117,-0.4544900059700012
1701290239963727600,5.1667275390625,-0.10837520658969879,-0.19814637303352356,-0.4471258223056793
1701290239973803800,5.1768037109375,-0.10356421023607254,-0.18388621509075165,-0.4409065544605255
1701290239983878700,5.186878662109375,-0.10143447667360306,-0.1617441624403,-0.4341389238834381
1701290239993954600,5.19695458984375,-0.11367649585008621,-0.09179623425006866,-0.4288320541381836
1701290240004029700,5.20702978515625,-0.11921773850917816,-0.018327342346310616,-0.4038721024990082
1701290240014105900,5.21710595703125,-0.12282898277044296,0.03596865385770798,-0.36191585659980774
1701290240024181500,5.227181396484375,-0.11473430693149567,0.07631953805685043,-0.32151463627815247
1701290240034256600,5.237256591796875,-0.11619957536458969,0.11062238365411758,-0.29599517583847046
1701290240044332800,5.247332763671875,-0.1232210025191307,0.1307433694601059,-0.2784545421600342
1701290240054407700,5.25740771484375,-0.1342339664697647,0.12120658904314041,-0.2627999484539032
1701290240064483600,5.267483642578125,-0.13840527832508087,0.08209194242954254,-0.2641882300376892
1701290240074558700,5.277558837890625,-0.14141304790973663,0.06121222302317619,-0.26864877343177795
1701290240084635000,5.287634765625,-0.13288135826587677,0.06651803851127625,-0.27306854724884033
1701290240094709800,5.297709716796875,-0.11919642984867096,0.08203814178705215,-0.26129257678985596
1701290240104785700,5.30778564453125,-0.0985337644815445,0.10163474828004837,-0.24605850875377655
1701290240114860800,5.31786083984375,-0.0911799743771553,0.13004454970359802,-0.23234136402606964
1701290240124936700,5.327936767578125,-0.0945022702217102,0.1612733155488968,-0.2294664829969406
1701290240135011600,5.338011474609375,-0.09992686659097672,0.18510806560516357,-0.2330968976020813
1701290240145087700,5.348087646484375,-0.10021528601646423,0.1999373435974121,-0.23770949244499207
1701290240155163600,5.35816357421875,-0.09931033849716187,0.19847021996974945,-0.22868803143501282
1701290240165238500,5.368238525390625,-0.09100154787302017,0.17942754924297333,-0.21646066009998322
1701290240175314700,5.378314697265625,-0.08369116485118866,0.16629549860954285,-0.20121486485004425
1701290240185390300,5.388390380859375,-0.07764499634504318,0.18978510797023773,-0.19264774024486542
1701290240195466200,5.39846630859375,-0.07086724787950516,0.22756338119506836,-0.18179430067539215
1701290240205541000,5.408541015625,-0.05164668336510658,0.2761591374874115,-0.1583009511232376
1701290240215617300,5.4186171875,-0.03199734911322594,0.3381540775299072,-0.10552109777927399
1701290240225692200,5.428692138671875,-0.020246949046850204,0.41963109374046326,-0.03641047328710556
1701290240235768000,5.43876806640625,-0.019475962966680527,0.4850332736968994,0.027516579255461693
1701290240245843200,5.44884326171875,-0.024522120133042336,0.4968891441822052,0.07628811150789261
1701290240255919000,5.458919189453125,-0.024517593905329704,0.4497098922729492,0.09086865186691284
1701290240265994200,5.468994140625,-0.028495557606220245,0.4366380274295807,0.08952855318784714
1701290240276070100,5.479070068359375,-0.030895598232746124,0.45726820826530457,0.09201434254646301
1701290240286146000,5.48914599609375,-0.031798943877220154,0.4986364245414734,0.10279775410890579
1701290240296221200,5.49922119140625,-0.03050118312239647,0.5278475880622864,0.11110547930002213
1701290240306297300,5.50929736328125,-0.036251213401556015,0.5123440027236938,0.1107637956738472
1701290240316372200,5.519372314453125,-0.06124364957213402,0.4636784493923187,0.08812160044908524
1701290240326448000,5.5294482421875,-0.09450040757656097,0.4055038094520569,0.06547727435827255
1701290240336523300,5.539523193359375,-0.12151764333248138,0.35812005400657654,0.04723036289215088
1701290240346599200,5.54959912109375,-0.1442652940750122,0.32089707255363464,0.027066504582762718
1701290240356674300,5.55967431640625,-0.15912920236587524,0.2624196410179138,0.0020756677258759737
1701290240366750200,5.569750244140625,-0.18021690845489502,0.1919127106666565,-0.033967554569244385
1701290240376825000,5.5798251953125,-0.20312701165676117,0.14797721803188324,-0.07380977272987366
1701290240386901200,5.5899013671875,-0.23076477646827698,0.16431410610675812,-0.10634800791740417
1701290240396976000,5.59997607421875,-0.2545289695262909,0.21602924168109894,-0.11170096695423126
1701290240407052300,5.61005224609375,-0.25844061374664307,0.2683694064617157,-0.09923151135444641
1701290240417128200,5.620128173828125,-0.25745365023612976,0.2905804216861725,-0.08953787386417389
1701290240427203000,5.630203125,-0.26214665174484253,0.3061958849430084,-0.09416618198156357
1701290240437279200,5.640279296875,-0.26448652148246765,0.31719261407852173,-0.09031977504491806
1701290240447354000,5.65035400390625,-0.237042635679245,0.29439860582351685,-0.07178577035665512
1701290240457430000,5.660429931640625,-0.19251884520053864,0.23821283876895905,-0.046364836394786835
1701290240467505200,5.670505126953125,-0.14913035929203033,0.1835692971944809,-0.021799838170409203
1701290240477581300,5.680581298828125,-0.11544190347194672,0.1588391810655594,0.003082076320424676
1701290240487656200,5.69065625,-0.08932801336050034,0.1746242642402649,0.03436969220638275
1701290240497732000,5.700732177734375,-0.06413744390010834,0.23697365820407867,0.08438491821289062
1701290240507807200,5.71080712890625,-0.024763403460383415,0.30571359395980835,0.15460236370563507
1701290240517883400,5.72088330078125,0.027602333575487137,0.37212109565734863,0.23645009100437164
1701290240527958300,5.730958251953125,0.08472154289484024,0.4049232602119446,0.3082113564014435
1701290240538034200,5.7410341796875,0.1411302238702774,0.39063939452171326,0.365964412689209
1701290240548110300,5.7511103515625,0.19561158120632172,0.3486514687538147,0.4275667667388916
1701290240558185200,5.761185302734375,0.24433623254299164,0.2906946837902069,0.5014932155609131
1701290240568261000,5.77126123046875,0.286578506231308,0.22107991576194763,0.5955965518951416
1701290240578336300,5.781336181640625,0.32938510179519653,0.1730082631111145,0.6976006627082825
1701290240588412200,5.791412109375,0.37185266613960266,0.1672065705060959,0.7969512343406677
1701290240598487000,5.801487060546875,0.4136560261249542,0.19293935596942902,0.8991774320602417
1701290240608563200,5.811563232421875,0.45928555727005005,0.22742649912834167,1.0186058282852173
1701290240618638300,5.821638427734375,0.5165440440177917,0.23667564988136292,1.164108157157898
1701290240628714000,5.8317138671875,0.5634087920188904,0.22899536788463593,1.326741337776184
1701290240638789000,5.8417890625,0.5898094773292542,0.2283351719379425,1.4828920364379883
1701290240648865300,5.851865234375,0.6112048029899597,0.24605850875377655,1.6107966899871826
1701290240658940400,5.8619404296875,0.6226574182510376,0.27789634466171265,1.7085148096084595
1701290240669016000,5.87201611328125,0.6429427266120911,0.3253847658634186,1.7984851598739624
1701290240679092200,5.88209228515625,0.6585422158241272,0.3614862859249115,1.8759000301361084
1701290240689167400,5.89216748046875,0.6583419442176819,0.3679727017879486,1.8847843408584595
1701290240699243300,5.9022431640625,0.6485737562179565,0.33534789085388184,1.757667899131775
1701290240709318100,5.912318115234375,0.6267768144607544,0.2129034847021103,1.523032784461975
1701290240719394300,5.922394287109375,0.6094460487365723,0.07953158020973206,1.2628328800201416
1701290240729469200,5.93246923828125,0.5874041318893433,0.028931517153978348,1.0487419366836548
1701290240739545000,5.942545166015625,0.5815765857696533,0.028262265026569366,0.8988352417945862
1701290240749620200,5.9526201171875,0.582566499710083,0.013500096276402473,0.8049545288085938
1701290240759696100,5.962696044921875,0.5891929864883423,-0.00646748673170805,0.7529017329216003
1701290240769771000,5.97277099609375,0.5857335329055786,0.002858903491869569,0.7382932305335999
1701290240779847200,5.98284716796875,0.5502719283103943,0.03352999687194824,0.7496708035469055
1701290240789922300,5.99292236328125,0.5084517598152161,0.02201795019209385,0.7554607391357422
1701290240799998200,6.002998291015625,0.4780595302581787,0.002186721656471491,0.7734227180480957
1701290240810074000,6.01307421875,0.4419427812099457,-0.0182836651802063,0.7633658051490784
1701290240820149200,6.023149169921875,0.39764776825904846,-0.08935277909040451,0.6984710097312927
1701290240830225200,6.03322509765625,0.3451291620731354,-0.1836630403995514,0.579804003238678
1701290240840300000,6.043300048828125,0.3113866448402405,-0.29730892181396484,0.4235861599445343
1701290240850376200,6.053376220703125,0.2988876402378082,-0.39477527141571045,0.25281602144241333
1701290240860451300,6.063451416015625,0.28549325466156006,-0.4546993374824524,0.10114126652479172
1701290240870527200,6.07352734375,0.26197728514671326,-0.4899691641330719,-0.0026903252582997084
1701290240880602000,6.08360205078125,0.23971325159072876,-0.5125154852867126,-0.06745333969593048
1701290240890678300,6.09367822265625,0.219349667429924,-0.522874653339386,-0.10526863485574722
1701290240900753200,6.103753173828125,0.19909977912902832,-0.5239774584770203,-0.1274370551109314
1701290240910829300,6.113829345703125,0.17803232371807098,-0.5314937233924866,-0.15108725428581238
1701290240920904200,6.123904296875,0.15358635783195496,-0.5505648851394653,-0.17454437911510468
1701290240930980000,6.13397998046875,0.12769830226898193,-0.5769112706184387,-0.1937686651945114
1701290240941056300,6.14405615234375,0.09686316549777985,-0.5841768980026245,-0.1964443475008011
1701290240951131100,6.154131103515625,0.0758521556854248,-0.5970674157142639,-0.1822395771741867
1701290240961207000,6.16420703125,0.05807102471590042,-0.6379303932189941,-0.15708628296852112
1701290240971282200,6.1742822265625,0.04282975569367409,-0.6895152926445007,-0.12981125712394714
1701290240981358300,6.1843583984375,0.013823137618601322,-0.7378000020980835,-0.09911300241947174
1701290240991433200,6.19443310546875,-0.018621888011693954,-0.7732354998588562,-0.07452616840600967
1701290241001509000,6.204509033203125,-0.03911038488149643,-0.7868391871452332,-0.060200754553079605
1701290241011584300,6.214584228515625,-0.052388373762369156,-0.760328471660614,-0.045933403074741364
1701290241021660200,6.22466015625,-0.05582091957330704,-0.6897850632667542,-0.029139509424567223
1701290241031735300,6.2347353515625,-0.056409746408462524,-0.5910283923149109,-0.008829976432025433
1701290241041811200,6.244811279296875,-0.05572265014052391,-0.4782310128211975,0.016828248277306557
1701290241051886000,6.254885986328125,-0.05025491490960121,-0.37753236293792725,0.04201189801096916
1701290241061962200,6.264962158203125,-0.04254426434636116,-0.2948620021343231,0.0712326318025589
1701290241072038100,6.2750380859375,-0.03352547064423561,-0.22224505245685577,0.09819900244474411
1701290241082113300,6.28511328125,-0.02678847126662731,-0.15515096485614777,0.10961597412824631
1701290241092189200,6.295189208984375,-0.025120534002780914,-0.09304525703191757,0.10319162905216217
1701290241102264000,6.30526416015625,-0.029259352013468742,-0.05349384993314743,0.08368691056966782
1701290241112340200,6.31534033203125,-0.038604915142059326,-0.03279789537191391,0.060917943716049194
1701290241122415400,6.325415283203125,-0.04929511249065399,-0.021625665947794914,0.03675561770796776
1701290241132491000,6.335490966796875,-0.06269613653421402,-0.022339660674333572,0.013497432693839073
1701290241142566100,6.345566162109375,-0.0758441612124443,-0.02623027190566063,-0.010596984066069126
1701290241152642300,6.355642333984375,-0.08489757776260376,-0.03570420295000076,-0.02731098234653473
1701290241162717200,6.36571728515625,-0.08970751613378525,-0.05233564227819443,-0.042020685970783234
1701290241172793000,6.37579296875,-0.09287720918655396,-0.08828458935022354,-0.06130543351173401
1701290241182868200,6.3858681640625,-0.09543410688638687,-0.13271836936473846,-0.08477720618247986
1701290241192943400,6.395943359375,-0.09307215362787247,-0.20844002068042755,-0.11377184092998505
1701290241203019300,6.406019287109375,-0.0950266495347023,-0.2819616496562958,-0.14767228066921234
1701290241213094100,6.41609423828125,-0.09256615489721298,-0.3417613208293915,-0.170151486992836
1701290241223170300,6.42617041015625,-0.07894062250852585,-0.40541645884513855,-0.19185705482959747
1701290241233245200,6.4362451171875,-0.051120441406965256,-0.4363429546356201,-0.19946996867656708
1701290241243321000,6.446321044921875,-0.00851439218968153,-0.4424535930156708,-0.17819850146770477
1701290241253396200,6.456396240234375,0.03561578318476677,-0.4332534372806549,-0.13666756451129913
1701290241263472400,6.466472412109375,0.08987502753734589,-0.4026441276073456,-0.09700936824083328
1701290241273547300,6.47654736328125,0.12797367572784424,-0.3354240655899048,-0.08409596979618073
1701290241283623200,6.486623046875,0.14754657447338104,-0.26664555072784424,-0.08789683133363724
1701290241293698300,6.4966982421875,0.14356355369091034,-0.20203831791877747,-0.09176667034626007
1701290241303774500,6.5067744140625,0.13521374762058258,-0.1538098007440567,-0.09226415306329727
1701290241313849000,6.51684912109375,0.11809015274047852,-0.11562113463878632,-0.09115467965602875
1701290241323925200,6.52692529296875,0.09740351885557175,-0.08157768100500107,-0.09984936565160751
1701290241334001400,6.53700146484375,0.07012981921434402,-0.047018107026815414,-0.10756747424602509
1701290241344076000,6.547075927734375,0.03669117018580437,-0.00836632028222084,-0.1139364242553711
1701290241354152200,6.557152099609375,0.007232879288494587,0.01417307648807764,-0.11119043827056885
1701290241364227300,6.567227294921875,-0.021750302985310555,0.018976887688040733,-0.11370339244604111
1701290241374303200,6.57730322265625,-0.04260578379034996,0.013765613548457623,-0.14169934391975403
1701290241384378000,6.587378173828125,-0.06888878345489502,0.0029201561119407415,-0.1971045434474945
1701290241394454300,6.597454345703125,-0.08480144292116165,-0.02370133437216282,-0.24901728332042694
1701290241404529400,6.607529296875,-0.09623225778341293,-0.04477439448237419,-0.30081841349601746
1701290241414605000,6.61760498046875,-0.10792167484760284,-0.049436792731285095,-0.3596676290035248
1701290241424680200,6.62768017578125,-0.14420245587825775,-0.03320429101586342,-0.42717236280441284
1701290241434756400,6.63775634765625,-0.2057851254940033,-0.00939083844423294,-0.4928922653198242
1701290241444831200,6.647831298828125,-0.26803863048553467,-0.007083741948008537,-0.5257537961006165
1701290241454907100,6.6579072265625,-0.30267223715782166,-0.08603262156248093,-0.49432823061943054
1701290241464983300,6.6679833984375,-0.29719358682632446,-0.21534453332424164,-0.40842825174331665
1701290241475058400,6.678058349609375,-0.2505536675453186,-0.31231608986854553,-0.31078770756721497
1701290241485134000,6.688134033203125,-0.19052760303020477,-0.3017694354057312,-0.24041686952114105
1701290241495209200,6.698209228515625,-0.1370105892419815,-0.23410038650035858,-0.22550475597381592
1701290241505285400,6.708285400390625,-0.0940316915512085,-0.1561989188194275,-0.25401657819747925
1701290241515360300,6.7183603515625,-0.07306116074323654,-0.08497534692287445,-0.30816447734832764
1701290241525436200,6.728436279296875,-0.06730766594409943,0.020733507350087166,-0.3453046679496765
1701290241535511300,6.73851123046875,-0.07653259485960007,0.15980245172977448,-0.33552953600883484
1701290241545587200,6.748587158203125,-0.09447777271270752,0.2877438962459564,-0.27680522203445435
1701290241555662000,6.758662109375,-0.1153034195303917,0.37033119797706604,-0.1714404672384262
1701290241565738200,6.76873828125,-0.12212404608726501,0.4116746485233307,-0.04695232957601547
1701290241575814100,6.778814208984375,-0.11305997520685196,0.4105052351951599,0.058830294758081436
1701290241585889300,6.78888916015625,-0.118615061044693,0.3829132914543152,0.0847332626581192
1701290241595965200,6.798965087890625,-0.15941575169563293,0.34633052349090576,0.013590909540653229
1701290241606040300,6.809040283203125,-0.21958935260772705,0.2963038384914398,-0.08712797611951828
1701290241616116200,6.8191162109375,-0.2601708769798279,0.22802144289016724,-0.1690414845943451
1701290241626191000,6.829191162109375,-0.2676330506801605,0.14972877502441406,-0.23435896635055542
1701290241636267300,6.839267333984375,-0.25380057096481323,0.08413059264421463,-0.3058752417564392
1701290241646342400,6.84934228515625,-0.22399261593818665,0.04390407353639603,-0.37217089533805847
1701290241656418300,6.859418212890625,-0.20065267384052277,0.044258009642362595,-0.413670152425766
1701290241666493200,6.8694931640625,-0.17973141372203827,0.05435458570718765,-0.40292268991470337
1701290241676569300,6.8795693359375,-0.15535736083984375,0.06663122773170471,-0.3442881405353546
1701290241686644200,6.889644287109375,-0.13039129972457886,0.12193150073289871,-0.27554529905319214
1701290241696720100,6.89972021484375,-0.10987483710050583,0.22494789958000183,-0.2609160244464874
1701290241706796300,6.90979638671875,-0.10235939174890518,0.3742910325527191,-0.30225998163223267
1701290241716871200,6.91987109375,-0.10703856498003006,0.5242887735366821,-0.36611407995224
1701290241726947300,6.929947265625,-0.11334893107414246,0.6166898608207703,-0.4015016257762909
1701290241737022200,6.940022216796875,-0.12956412136554718,0.644960343837738,-0.4217323362827301
1701290241747098000,6.95009814453125,-0.1444101780653,0.6084433794021606,-0.41182324290275574
1701290241757173200,6.96017333984375,-0.16979196667671204,0.5439322590827942,-0.4043235182762146
1701290241767249400,6.97024951171875,-0.209749236702919,0.47090068459510803,-0.4023466408252716
1701290241777324300,6.98032421875,-0.26259779930114746,0.3979862630367279,-0.40856724977493286
1701290241787400200,6.990400146484375,-0.30094653367996216,0.3355093002319336,-0.40151387453079224
1701290241797475300,7.000475341796875,-0.3143502175807953,0.29191282391548157,-0.3714483976364136
1701290241807551200,7.01055126953125,-0.3148724436759949,0.26861947774887085,-0.32540684938430786
1701290241817626000,7.020626220703125,-0.2984553873538971,0.2598422169685364,-0.2748747169971466
1701290241827702300,7.030702392578125,-0.2707284390926361,0.2602664828300476,-0.2667182385921478
1701290241837778400,7.0407783203125,-0.23392461240291595,0.24911049008369446,-0.29977500438690186
1701290241847853000,7.05085302734375,-0.2000121921300888,0.18973717093467712,-0.3556861877441406
1701290241857929200,7.06092919921875,-0.17384690046310425,0.06469430774450302,-0.4201373755931854
1701290241868004400,7.07100439453125,-0.14927950501441956,-0.11044421792030334,-0.4944922924041748
1701290241878080300,7.081080322265625,-0.11643180251121521,-0.2720187306404114,-0.558956503868103
1701290241888155100,7.091155029296875,-0.07698346674442291,-0.36060214042663574,-0.596923291683197
1701290241898231300,7.101231201171875,-0.049065012484788895,-0.40059882402420044,-0.6052693724632263
1701290241908306200,7.11130615234375,-0.03725495934486389,-0.42054641246795654,-0.598551332950592
1701290241918382000,7.121382080078125,-0.04188433289527893,-0.40180468559265137,-0.5759671926498413
1701290241928457200,7.131457275390625,-0.054787080734968185,-0.33223652839660645,-0.5554147362709045
1701290241938533400,7.141533447265625,-0.05961406230926514,-0.23177331686019897,-0.5449152588844299
1701290241948608300,7.151608154296875,-0.07029440253973007,-0.11224398016929626,-0.5487275719642639
1701290241958684200,7.16168408203125,-0.07796990126371384,-0.0051628039218485355,-0.5686789155006409
1701290241968760300,7.17176025390625,-0.07962878048419952,0.04309127852320671,-0.607231616973877
1701290241978835500,7.18183544921875,-0.0770934522151947,0.06818438321352005,-0.6422631144523621
1701290241988911000,7.1919111328125,-0.09216268360614777,0.10606039315462112,-0.6417996883392334
1701290241998986200,7.201986328125,-0.1030624657869339,0.1326427310705185,-0.6114551424980164
1701290242009062400,7.2120625,-0.11372683197259903,0.12557336688041687,-0.5707526803016663
1701290242019137000,7.222136962890625,-0.1130961924791336,0.08383204787969589,-0.5256640315055847
1701290242029213200,7.232213134765625,-0.10086242854595184,0.023639015853405,-0.4979008734226227
1701290242039288300,7.242288330078125,-0.09471186250448227,-0.02630111202597618,-0.47930800914764404
1701290242049364200,7.2523642578125,-0.09889674931764603,-0.0544496588408947,-0.46430402994155884
1701290242059439000,7.262439208984375,-0.10478393733501434,-0.03194807842373848,-0.4500790238380432
1701290242069515300,7.272515380859375,-0.09606128185987473,0.012436163611710072,-0.42614972591400146
1701290242079590400,7.28259033203125,-0.08750348538160324,0.047735828906297684,-0.39584559202194214
1701290242089666000,7.292666015625,-0.08184852451086044,0.05186426267027855,-0.36192333698272705
1701290242099742200,7.3027421875,-0.0827617272734642,0.00045327001134864986,-0.33985504508018494
1701290242109817300,7.3128173828125,-0.08470263332128525,-0.07962532341480255,-0.33408504724502563
1701290242119893200,7.322893310546875,-0.10177509486675262,-0.14335715770721436,-0.3371404707431793
1701290242129968000,7.332968017578125,-0.11697029322385788,-0.14103755354881287,-0.32629236578941345
1701290242140044300,7.343044189453125,-0.1107904314994812,-0.07450299710035324,-0.297299861907959
1701290242150119400,7.353119384765625,-0.10095351189374924,0.008393218740820885,-0.25700995326042175
1701290242160195300,7.3631953125,-0.08146370202302933,0.06684720516204834,-0.2216799259185791
1701290242170270200,7.373270263671875,-0.07464973628520966,0.08849231153726578,-0.2108006477355957
1701290242180346400,7.383346435546875,-0.06975191831588745,0.09453635662794113,-0.2243119329214096
1701290242190422300,7.39342236328125,-0.08236304670572281,0.10787346959114075,-0.24185310304164886
1701290242200498400,7.40349853515625,-0.09902964532375336,0.11525016278028488,-0.25268125534057617
1701290242210574300,7.41357421875,-0.11696070432662964,0.08165758103132248,-0.24165789783000946
1701290242220649200,7.423649169921875,-0.12454245984554291,0.01920511946082115,-0.22777004539966583
1701290242230725400,7.433725341796875,-0.12739017605781555,-0.04024462401866913,-0.2273378223180771
1701290242240800300,7.44380029296875,-0.12012933939695358,-0.07343107461929321,-0.23775850236415863
1701290242250876400,7.45387646484375,-0.11170949041843414,-0.07264410704374313,-0.2485184669494629
1701290242260951300,7.463951416015625,-0.11050333827733994,-0.04378210008144379,-0.2524583339691162
1701290242271027200,7.474027099609375,-0.11545761674642563,0.0014708638191223145,-0.2445620745420456
1701290242281102300,7.484102294921875,-0.10812673717737198,0.04247076064348221,-0.2361574023962021
1701290242291178200,7.49417822265625,-0.1095946729183197,0.06935377418994904,-0.23256613314151764
1701290242301253400,7.50425341796875,-0.10996298491954803,0.08452500402927399,-0.2228703647851944
1701290242311329300,7.514329345703125,-0.11665098369121552,0.09274591505527496,-0.21375702321529388
1701290242321404200,7.524404052734375,-0.12639522552490234,0.08388637751340866,-0.2143479734659195
1701290242331480300,7.534480224609375,-0.14117123186588287,0.06003457307815552,-0.2177262008190155
1701290242341555500,7.544555419921875,-0.15866687893867493,0.041550640016794205,-0.23287159204483032
1701290242351631400,7.55463134765625,-0.17200025916099548,0.06383118033409119,-0.24527980387210846
1701290242361707300,7.564707275390625,-0.17583175003528595,0.11440753191709518,-0.2414136826992035
1701290242371782400,7.574782470703125,-0.18465159833431244,0.15281245112419128,-0.2199118584394455
1701290242381858300,7.5848583984375,-0.1912330687046051,0.17106787860393524,-0.19750934839248657
1701290242391933200,7.59493310546875,-0.2032812088727951,0.19761374592781067,-0.18755924701690674
1701290242402009300,7.60500927734375,-0.21487101912498474,0.23826183378696442,-0.19606325030326843
1701290242412084200,7.615084228515625,-0.22469915449619293,0.280305415391922,-0.20987387001514435
1701290242422160400,7.625160400390625,-0.2295602262020111,0.27607792615890503,-0.21511657536029816
1701290242432235300,7.6352353515625,-0.23474273085594177,0.2515246570110321,-0.21874593198299408
1701290242442311200,7.645311279296875,-0.2440158575773239,0.27171459794044495,-0.2226887345314026
1701290242452386300,7.65538623046875,-0.26057887077331543,0.3137797713279724,-0.21636159718036652
1701290242462462500,7.66546240234375,-0.2661952078342438,0.3828032910823822,-0.19308343529701233
1701290242472538000,7.6755380859375,-0.2765069603919983,0.4648419916629791,-0.15062572062015533
1701290242482613200,7.68561328125,-0.27740392088890076,0.5312508344650269,-0.09072776883840561
1701290242492689400,7.695689453125,-0.2692341208457947,0.5794500708580017,-0.022999858483672142
1701290242502764300,7.705764404296875,-0.24750326573848724,0.6434314250946045,0.04698428511619568
1701290242512840200,7.715840087890625,-0.2142704874277115,0.722523033618927,0.10772593319416046
1701290242522915300,7.725915283203125,-0.18382948637008667,0.7651165723800659,0.16197797656059265
1701290242532991500,7.735991455078125,-0.16822549700737,0.7424322962760925,0.21539247035980225
1701290242543066400,7.74606640625,-0.12311926484107971,0.6688419580459595,0.2503872215747833
1701290242553142300,7.756142333984375,-0.06654386967420578,0.5412078499794006,0.2673925459384918
1701290242563217400,7.766217529296875,-0.011315238662064075,0.3966813087463379,0.2680274546146393
1701290242573293300,7.776293212890625,0.012912070378661156,0.2998519539833069,0.2546927332878113
1701290242583368200,7.7863681640625,0.03166365250945091,0.28643468022346497,0.24739594757556915
1701290242593444400,7.7964443359375,0.0983382910490036,0.3060249090194702,0.26224520802497864
1701290242603520500,7.8065205078125,0.21583189070224762,0.32553309202194214,0.3346533477306366
1701290242613595100,7.81659521484375,0.3323025703430176,0.354798823595047,0.4548964202404022
1701290242623671300,7.82667138671875,0.4223003685474396,0.3366864025592804,0.5990213751792908
1701290242633746400,7.836746337890625,0.48765382170677185,0.19537082314491272,0.739253044128418
1701290242643822300,7.846822265625,0.5616167187690735,-0.0013616742799058557,0.8461994528770447
1701290242653897200,7.856897216796875,0.6469486951828003,-0.16410398483276367,0.9275704622268677
1701290242663973400,7.866973388671875,0.7270243167877197,-0.2643994390964508,1.0327091217041016
1701290242674048500,7.877048583984375,0.7565939426422119,-0.2934204339981079,1.1899304389953613
1701290242684124200,7.887124267578125,0.7541542053222656,-0.2686924338340759,1.3809858560562134
1701290242694199300,7.89719921875,0.7494593262672424,-0.19778472185134888,1.5664499998092651
1701290242704275500,7.907275390625,0.7516756057739258,-0.07262866199016571,1.7409569025039673
1701290242714351400,7.917351318359375,0.7785559892654419,0.07884128391742706,1.8922470808029175
1701290242724426200,7.92742626953125,0.8339095115661621,0.22278061509132385,2.003030300140381
1701290242734502400,7.93750244140625,0.895713746547699,0.2850887179374695,2.010279893875122
1701290242744577300,7.947577392578125,0.938901424407959,0.2439492791891098,1.8746951818466187
1701290242754653200,7.957653076171875,0.9510262608528137,0.21901756525039673,1.6293081045150757
1701290242764728300,7.967728271484375,0.91408771276474,0.20940302312374115,1.3763240575790405
1701290242774804500,7.977804443359375,0.8589650392532349,0.22702142596244812,1.1722124814987183
1701290242784879000,7.987879150390625,0.8023712635040283,0.3034062087535858,1.0636638402938843
1701290242794955300,7.997955322265625,0.7693406343460083,0.27329331636428833,0.989173948764801
1701290242805030400,8.008030517578124,0.7483157515525818,0.24015401303768158,0.959735631942749
1701290242815106300,8.018106201171875,0.7178281545639038,0.23775237798690796,0.9558958411216736
1701290242825181200,8.02818115234375,0.6710239052772522,0.2464635670185089,0.9768107533454895
1701290242835257300,8.03825732421875,0.6355764269828796,0.1417941451072693,1.0060088634490967
1701290242845333200,8.048333251953125,0.6269219517707825,-0.04642954841256142,1.0209054946899414
1701290242855408400,8.058408447265625,0.6120213270187378,-0.1868247389793396,0.9943260550498962
1701290242865484300,8.068484375,0.5866661667823792,-0.25505760312080383,0.8724765777587891
1701290242875559400,8.078559326171876,0.5321906805038452,-0.3539506196975708,0.6537919044494629
1701290242885635300,8.08863525390625,0.5160151720046997,-0.49271833896636963,0.41249462962150574
1701290242895710200,8.098710205078126,0.5256839990615845,-0.6479771733283997,0.21008825302124023
1701290242905786400,8.108786376953125,0.5356461405754089,-0.7469024062156677,0.0914180651307106
1701290242915861200,8.118861328125,0.5336271524429321,-0.8025854229927063,0.04117699712514877
1701290242925937400,8.1289375,0.5123226642608643,-0.8547825813293457,0.04143878445029259
1701290242936012300,8.13901220703125,0.4884823262691498,-0.8860230445861816,0.0525289885699749
1701290242946088200,8.149088134765625,0.4636867046356201,-0.8916553258895874,0.06583227962255478
1701290242956163300,8.159163330078124,0.4310168921947479,-0.9082825183868408,0.0697934627532959
1701290242966239200,8.1692392578125,0.39159253239631653,-0.9377096891403198,0.08032067120075226
1701290242976315100,8.179315185546875,0.35087892413139343,-0.9682134985923767,0.08761081099510193
1701290242986390300,8.189390380859376,0.30245813727378845,-0.986640214920044,0.09418721497058868
1701290242996466400,8.199466552734375,0.25493934750556946,-0.993435800075531,0.1062321662902832
1701290243006541300,8.209541259765626,0.20924589037895203,-0.9850585460662842,0.11298167705535889
1701290243016617200,8.2196171875,0.17850449681282043,-0.9796179533004761,0.11161094903945923
1701290243026692400,8.2296923828125,0.14571699500083923,-0.9550268650054932,0.10263103991746902
1701290243036768500,8.2397685546875,0.10982290655374527,-0.8830677270889282,0.09558697789907455
1701290243046843400,8.249843505859374,0.07459860295057297,-0.7606379389762878,0.10155139118432999
1701290243056919300,8.259919189453125,0.041241977363824844,-0.5854344367980957,0.1134653091430664
1701290243066994400,8.269994384765624,-0.006296778097748756,-0.3723336160182953,0.12185107171535492
1701290243077070300,8.2800703125,-0.05396603047847748,-0.18095619976520538,0.12478534132242203
1701290243087146200,8.290146240234375,-0.10875550657510757,-0.042865972965955734,0.12042388319969177
1701290243097221400,8.300221435546876,-0.16064800322055817,0.040226515382528305,0.10700474679470062
1701290243107297500,8.310297607421875,-0.2116645723581314,0.08169300109148026,0.08640492707490921
1701290243117372200,8.3203720703125,-0.2476513385772705,0.10307871550321579,0.06148892641067505
1701290243127448300,8.3304482421875,-0.2734405994415283,0.11661715805530548,0.024825721979141235
1701290243137523500,8.3405234375,-0.2933301329612732,0.11471433192491531,-0.016231434419751167
1701290243147599000,8.35059912109375,-0.3174589276313782,0.11586428433656693,-0.06542188674211502
1701290243157674200,8.36067431640625,-0.3371780216693878,0.09699045866727829,-0.10715441405773163
1701290243167750400,8.37075048828125,-0.3598870635032654,0.0719761922955513,-0.1395200788974762
1701290243177825300,8.3808251953125,-0.38034680485725403,0.017018131911754608,-0.16732294857501984
1701290243187900700,8.390900634765625,-0.381883442401886,-0.0539761483669281,-0.19399823248386383
1701290243197975600,8.4009755859375,-0.36408740282058716,-0.11363548785448074,-0.2213723361492157
1701290243208051700,8.4110517578125,-0.3211759030818939,-0.16902391612529755,-0.2531534433364868
1701290243218127600,8.421127685546875,-0.26705408096313477,-0.23099246621131897,-0.2736499309539795
1701290243228202800,8.43120263671875,-0.21562044322490692,-0.29773926734924316,-0.29440367221832275
1701290243238278700,8.441278564453125,-0.16457189619541168,-0.3523716330528259,-0.3072507679462433
1701290243248353800,8.451353759765626,-0.11356358230113983,-0.3848177194595337,-0.32076069712638855
1701290243258429700,8.4614296875,-0.04911241680383682,-0.39555397629737854,-0.33697083592414856
1701290243268504600,8.471504638671876,0.012399145402014256,-0.3897794485092163,-0.34658485651016235
1701290243278580700,8.481580810546875,0.07336875796318054,-0.40103185176849365,-0.34264442324638367
1701290243288656000,8.49165576171875,0.12145479023456573,-0.4415941834449768,-0.32338523864746094
1701290243298731800,8.501731689453125,0.16666755080223083,-0.4569885730743408,-0.27919861674308777
1701290243308806700,8.511806640625,0.2031717598438263,-0.4012733995914459,-0.20804454386234283
1701290243318882800,8.5218828125,0.22857405245304108,-0.30369889736175537,-0.12943388521671295
1701290243328958700,8.531958740234375,0.22155769169330597,-0.1850936859846115,-0.06928186863660812
1701290243339033900,8.542033935546876,0.17606423795223236,-0.04680478945374489,-0.03687119856476784
1701290243349109800,8.55210986328125,0.1100924164056778,0.0902249664068222,-0.052986517548561096
1701290243359184600,8.5621845703125,0.02912086807191372,0.17809677124023438,-0.11791384965181351
1701290243369260800,8.5722607421875,-0.08244267851114273,0.24694906175136566,-0.2135612815618515
1701290243379335700,8.582335693359376,-0.21950732171535492,0.32923516631126404,-0.317287415266037
1701290243389411600,8.59241162109375,-0.3316357135772705,0.40361857414245605,-0.3959156572818756
1701290243399486700,8.60248681640625,-0.3801313638687134,0.42298799753189087,-0.40759599208831787
1701290243409563000,8.61256298828125,-0.3729938268661499,0.34911563992500305,-0.357973575592041
1701290243419637800,8.6226376953125,-0.33486586809158325,0.1889885663986206,-0.2933503985404968
1701290243429713700,8.632713623046875,-0.2941003441810608,0.009495766833424568,-0.26202788949012756
1701290243439789800,8.642789794921875,-0.28020262718200684,-0.13632774353027344,-0.29566627740859985
1701290243449864700,8.65286474609375,-0.28919717669487,-0.23600400984287262,-0.37391793727874756
1701290243459940600,8.662940673828125,-0.30612289905548096,-0.3376675248146057,-0.41702359914779663
1701290243470015700,8.673015625,-0.30648669600486755,-0.3491382896900177,-0.3956458568572998
1701290243480092000,8.683091796875,-0.2834223806858063,-0.12130671739578247,-0.31209105253219604
1701290243490166800,8.693166748046876,-0.240667462348938,0.3189936876296997,-0.20045320689678192
1701290243500242700,8.70324267578125,-0.18687614798545837,0.7948102951049805,-0.10001980513334274
1701290243510317800,8.71331787109375,-0.16170634329319,1.1489838361740112,-0.0346037819981575
1701290243520393700,8.723393798828125,-0.1768791675567627,1.319054126739502,0.009224390611052513
1701290243530468600,8.733468505859374,-0.2298949807882309,1.3051800727844238,0.06378696858882904
1701290243540544800,8.743544677734375,-0.2970644235610962,1.1845316886901855,0.11921747028827667
1701290243550620000,8.753619873046874,-0.3534025251865387,0.9920139312744141,0.13328509032726288
1701290243560695600,8.763695556640625,-0.3694313168525696,0.7482079267501831,0.052864547818899155
1701290243570771700,8.773771728515625,-0.34783732891082764,0.48394322395324707,-0.12563994526863098
1701290243580846800,8.783846923828126,-0.31753188371658325,0.24019849300384521,-0.36794525384902954
1701290243590922800,8.7939228515625,-0.27366989850997925,0.06948693096637726,-0.5936758518218994
1701290243600997600,8.80399755859375,-0.22430740296840668,-0.03550233319401741,-0.7492132782936096
1701290243611073800,8.81407373046875,-0.18774646520614624,-0.12672731280326843,-0.7934606075286865
1701290243621149000,8.82414892578125,-0.14837774634361267,-0.20722243189811707,-0.7246301770210266
1701290243631224600,8.834224609375,-0.09378641098737717,-0.25111398100852966,-0.576062798500061
1701290243641299700,8.8442998046875,-0.03488874062895775,-0.2425449937582016,-0.429813414812088
1701290243651375900,8.8543759765625,0.011877964250743389,-0.16350504755973816,-0.36563628911972046
1701290243661450800,8.86445068359375,0.02226349338889122,-0.02479988895356655,-0.4134395122528076
1701290243671526700,8.874526611328125,0.02540096454322338,0.0746350884437561,-0.5460068583488464
1701290243681602800,8.884602783203125,0.054618772119283676,0.047391749918460846,-0.699576735496521
1701290243691677700,8.894677734375,0.07893236726522446,-0.06386633217334747,-0.826682984828949
1701290243701753900,8.90475390625,0.0627392828464508,-0.19065169990062714,-0.8996935486793518
1701290243711828700,8.914828857421876,0.01954653672873974,-0.27766329050064087,-0.9048206806182861
1701290243721904600,8.924904541015625,-0.03332493454217911,-0.28460508584976196,-0.8589352369308472
1701290243731979800,8.934979736328126,-0.050464238971471786,-0.18587958812713623,-0.767494797706604
1701290243742055700,8.9450556640625,-0.05817036330699921,0.01739736646413803,-0.6553077697753906
1701290243752130800,8.955130859375,-0.08063625544309616,0.25871944427490234,-0.5343877673149109
1701290243762206700,8.965206787109375,-0.10878240317106247,0.4552045464515686,-0.43590620160102844
1701290243772281600,8.975281494140624,-0.119361013174057,0.5899908542633057,-0.3477840721607208
1701290243782357800,8.985357666015625,-0.09921633452177048,0.6653450131416321,-0.2729838490486145
1701290243792433700,8.99543359375,-0.06607382744550705,0.6671607494354248,-0.22772397100925446
1701290243802508800,9.0055087890625,-0.04733475670218468,0.6047876477241516,-0.21085818111896515
1701290243812584700,9.015584716796875,-0.03831596300005913,0.4897015392780304,-0.23082922399044037
1701290243822659800,9.025659912109376,-0.02942180447280407,0.34765756130218506,-0.2790398895740509
1701290243832735700,9.03573583984375,-0.031735826283693314,0.23025956749916077,-0.33450183272361755
1701290243842810600,9.045810546875,-0.04507559910416603,0.16345550119876862,-0.36717188358306885
1701290243852886800,9.05588671875,-0.056705355644226074,0.15891268849372864,-0.37435096502304077
1701290243862961700,9.065961669921874,-0.07473175972700119,0.16007143259048462,-0.38437750935554504
1701290243873037800,9.076037841796875,-0.09285244345664978,0.14564375579357147,-0.4163878858089447
1701290243883112700,9.08611279296875,-0.11248660087585449,0.10990013182163239,-0.46302545070648193
1701290243893188600,9.096188720703125,-0.13256390392780304,0.05582784488797188,-0.5059481263160706
1701290243903264800,9.1062646484375,-0.15512433648109436,-0.0025659557431936264,-0.5280805826187134
1701290243913340000,9.11633984375,-0.17096401751041412,-0.04843730852007866,-0.5401929020881653
1701290243923415600,9.12641552734375,-0.17971517145633698,-0.061467889696359634,-0.5428465008735657
1701290243933490700,9.13649072265625,-0.1829192191362381,-0.030286800116300583,-0.533484160900116
1701290243943566800,9.14656689453125,-0.19176490604877472,0.0357808992266655,-0.5008404850959778
1701290243953641700,9.156641845703126,-0.20264019072055817,0.10835842788219452,-0.4419025778770447
1701290243963717600,9.166717529296875,-0.21849586069583893,0.16639083623886108,-0.37252670526504517
1701290243973792800,9.176792724609374,-0.2294052243232727,0.2011331021785736,-0.3120593726634979
1701290243983869000,9.186868896484375,-0.22811971604824066,0.21828094124794006,-0.2759109437465668
1701290243993943800,9.19694384765625,-0.21785695850849152,0.23933269083499908,-0.23938356339931488
1701290244004019700,9.207019775390625,-0.21037986874580383,0.27801698446273804,-0.1776251196861267
1701290244014096000,9.217095947265625,-0.19684062898159027,0.3208906650543213,-0.09627220779657364
1701290244024170800,9.227170654296875,-0.18175888061523438,0.33278888463974,-0.03671513870358467
1701290244034246700,9.23724658203125,-0.1783074289560318,0.31582534313201904,-0.01287372037768364
1701290244044321800,9.24732177734375,-0.17894072830677032,0.3077349066734314,-0.02696024440228939
1701290244054397700,9.257397705078125,-0.18038681149482727,0.30440065264701843,-0.056058209389448166
1701290244064472600,9.26747265625,-0.17814017832279205,0.2596382200717926,-0.06578380614519119
1701290244074548700,9.277548828125,-0.1809074729681015,0.1713581681251526,-0.07163317501544952
1701290244084624000,9.287623779296876,-0.18431738018989563,0.07088828831911087,-0.08833252638578415
1701290244094699500,9.297699462890625,-0.17713935673236847,0.0017028251895681024,-0.13607634603977203
1701290244104774700,9.307774658203124,-0.16729658842086792,-0.030585605651140213,-0.20422397553920746
1701290244114850800,9.317850830078125,-0.16223284602165222,-0.05824093520641327,-0.2558639943599701
1701290244124926000,9.327926025390624,-0.15932227671146393,-0.0988517478108406,-0.27715757489204407
1701290244135001600,9.338001708984375,-0.15717603266239166,-0.13739460706710815,-0.2855808734893799
1701290244145077800,9.348077880859375,-0.16168184578418732,-0.16648031771183014,-0.2904651165008545
1701290244155153000,9.35815283203125,-0.16570214927196503,-0.1344107985496521,-0.31196802854537964
1701290244165228800,9.368228759765625,-0.17569325864315033,-0.03182530775666237,-0.31934842467308044
1701290244175303700,9.3783037109375,-0.18632566928863525,0.0768500417470932,-0.27980849146842957
1701290244185379800,9.3883798828125,-0.20079728960990906,0.17217415571212769,-0.20944882929325104
1701290244195454500,9.398454345703126,-0.21787667274475098,0.2761756479740143,-0.1403810828924179
1701290244205530400,9.4085302734375,-0.238459974527359,0.4320254325866699,-0.11185675859451294
1701290244215605200,9.418605224609376,-0.2685299813747406,0.5983694195747375,-0.1097177118062973
1701290244225681400,9.428681396484375,-0.29278871417045593,0.713478684425354,-0.09454408288002014
1701290244235757300,9.43875732421875,-0.3175393342971802,0.7434840202331543,-0.039500005543231964
1701290244245832200,9.448832275390625,-0.32334238290786743,0.7475399971008301,0.02841006964445114
1701290244255908400,9.458908447265625,-0.30911150574684143,0.769744336605072,0.07118895649909973
1701290244265983200,9.468983154296875,-0.25361788272857666,0.7646198868751526,0.09759340435266495
1701290244276059400,9.479059326171875,-0.164356991648674,0.6394071578979492,0.13646303117275238
1701290244286134300,9.48913427734375,-0.09706103801727295,0.4290727972984314,0.19179287552833557
1701290244296210200,9.499210205078125,-0.07199376821517944,0.30507415533065796,0.24928438663482666
1701290244306285300,9.509285400390626,-0.024267256259918213,0.35500895977020264,0.2996807098388672
1701290244316361500,9.519361572265625,0.07454587519168854,0.464665949344635,0.35753124952316284
1701290244326436400,9.529436279296876,0.20532065629959106,0.539150595664978,0.4601217806339264
1701290244336512300,9.53951220703125,0.3365282118320465,0.6353599429130554,0.6099845170974731
1701290244346588400,9.54958837890625,0.46257004141807556,0.6857666373252869,0.7895822525024414
1701290244356663300,9.559663330078125,0.5905309319496155,0.5763538479804993,0.9709067940711975
1701290244366739200,9.5697392578125,0.7031384110450745,0.3463115990161896,1.1719977855682373
1701290244376814300,9.579814453125,0.8098416924476624,0.14812475442886353,1.3770846128463745
1701290244386890500,9.589890380859375,0.8898776769638062,0.06456541270017624,1.5720107555389404
1701290244396965400,9.59996533203125,0.9212737083435059,0.08677910268306732,1.75206458568573
1701290244407041300,9.610041259765625,0.9067144393920898,0.1784869134426117,1.898418664932251
1701290244417116400,9.620116455078126,0.900934100151062,0.2750249207019806,1.9903112649917603
1701290244427192300,9.6301923828125,0.9157079458236694,0.35078492760658264,2.0291483402252197
1701290244437267200,9.64026708984375,0.9438040256500244,0.43354371190071106,2.0309619903564453
1701290244447343400,9.65034326171875,0.9872841238975525,0.46035534143447876,1.9889893531799316
1701290244457418200,9.660418212890624,1.0328537225723267,0.34875398874282837,1.8334382772445679
1701290244467494100,9.670494140625,1.023703694343567,0.27530133724212646,1.5710338354110718
1701290244477570300,9.6805703125,0.9654613733291626,0.25774553418159485,1.2471176385879517
1701290244487645400,9.6906455078125,0.8948021531105042,0.2344132959842682,0.9719182252883911
1701290244497721300,9.700721435546875,0.8184130787849426,0.2159738391637802,0.7867555618286133
1701290244507796200,9.710796142578126,0.7526870965957642,0.16492876410484314,0.702197253704071
1701290244517872400,9.720872314453125,0.7249600887298584,0.04565110802650452,0.6691871285438538
1701290244527947500,9.730947509765626,0.7043347358703613,-0.038597993552684784,0.7038543224334717
1701290244538023200,9.741023193359375,0.6701075434684753,-0.09523756802082062,0.8083218336105347
1701290244548098300,9.751098388671876,0.6445068120956421,-0.18686042726039886,0.9398961067199707
1701290244558174500,9.761174560546875,0.6062835454940796,-0.2920539677143097,1.0124925374984741
1701290244568249300,9.771249267578124,0.5510191917419434,-0.3530004024505615,0.9539461731910706
1701290244578325200,9.7813251953125,0.5086379051208496,-0.3994816243648529,0.7565955519676208
1701290244588401400,9.7914013671875,0.4838433563709259,-0.4671746492385864,0.4878697991371155
1701290244598476300,9.801476318359375,0.474269300699234,-0.5404565930366516,0.25292468070983887
1701290244608552200,9.81155224609375,0.457381933927536,-0.5895189046859741,0.09020739048719406
1701290244618627300,9.82162744140625,0.4134080708026886,-0.5641432404518127,0.005797701422125101
1701290244628703200,9.831703125,0.37048617005348206,-0.48578640818595886,-0.01871296763420105
1701290244638778000,9.841778076171876,0.34659630060195923,-0.3983798623085022,-0.002150768879801035
1701290244648854300,9.851854248046875,0.3341617286205292,-0.3459691107273102,0.022365227341651917
1701290244658929400,9.861929443359376,0.32499831914901733,-0.34615448117256165,0.02977920137345791
1701290244669005300,9.87200537109375,0.30766674876213074,-0.40758216381073,0.006340986583381891
1701290244679080200,9.882080078125,0.2816905379295349,-0.5136630535125732,-0.044679585844278336
1701290244689156400,9.89215625,0.2476835697889328,-0.634127676486969,-0.10703803598880768
1701290244699232300,9.902232177734374,0.20382076501846313,-0.7309309244155884,-0.1527770310640335
1701290244709307400,9.912307373046875,0.16357827186584473,-0.8081409931182861,-0.17861874401569366
1701290244719383300,9.92238330078125,0.13213220238685608,-0.878973126411438,-0.17451640963554382
1701290244729458400,9.93245849609375,0.11336890608072281,-0.9246684312820435,-0.16087010502815247
1701290244739534300,9.942534423828125,0.10066536068916321,-0.9229256510734558,-0.15386998653411865
1701290244749609200,9.952609130859376,0.08399663120508194,-0.8439903855323792,-0.15688441693782806
1701290244759685400,9.962685302734375,0.06835455447435379,-0.6746487617492676,-0.1533120572566986
1701290244769760300,9.97276025390625,0.042817238718271255,-0.45268598198890686,-0.13941754400730133
1701290244779836400,9.98283642578125,0.019266372546553612,-0.24697622656822205,-0.10239694267511368
1701290244789911300,9.992911376953124,-0.013050820678472519,-0.0927957147359848,-0.060744307935237885
1701290244799987200,10.0029873046875,-0.06632283329963684,0.010876083746552467,-0.035597141832113266
1701290244810063400,10.0130634765625,-0.12609268724918365,0.08888619393110275,-0.03659982234239578
1701290244820138200,10.02313818359375,-0.17861688137054443,0.15925197303295135,-0.05553330108523369
1701290244830214100,10.033214111328125,-0.2166215181350708,0.20360079407691956,-0.06493905186653137
1701290244840289300,10.043289306640625,-0.24521668255329132,0.19847899675369263,-0.07831557840108871
1701290244850365400,10.053365478515625,-0.26317837834358215,0.15783996880054474,-0.09325297921895981
1701290244860440300,10.0634404296875,-0.2817544639110565,0.10837014764547348,-0.1119592934846878
1701290244870516200,10.07351611328125,-0.29780319333076477,0.0690283328294754,-0.13752910494804382
1701290244880591400,10.08359130859375,-0.31063005328178406,0.0473608560860157,-0.15497520565986633
1701290244890667500,10.09366748046875,-0.31552278995513916,0.040350351482629776,-0.1646728366613388
1701290244900742400,10.103742431640624,-0.30776768922805786,0.03382480889558792,-0.17186763882637024
1701290244910818300,10.113818359375,-0.30025622248649597,0.0008932242053560913,-0.18037137389183044
1701290244920894500,10.12389453125,-0.2768704891204834,-0.055756740272045135,-0.2035994678735733
1701290244930969300,10.13396923828125,-0.23965999484062195,-0.09950342029333115,-0.22324000298976898
1701290244941045200,10.144045166015625,-0.1928701251745224,-0.12816862761974335,-0.24858398735523224
1701290244951120400,10.154120361328125,-0.15140870213508606,-0.13622814416885376,-0.28169479966163635
1701290244961196500,10.164196533203125,-0.11888324469327927,-0.1510225385427475,-0.3232076168060303
1701290244971271200,10.174271240234376,-0.08655166625976562,-0.18318447470664978,-0.3538496792316437
1701290244981347300,10.184347412109375,-0.052752960473299026,-0.23610760271549225,-0.3609491288661957
1701290244991422500,10.19442236328125,-0.012746155261993408,-0.28216084837913513,-0.3629821836948395
1701290245001498000,10.204498046875,0.02137186750769615,-0.2946425676345825,-0.37588921189308167
1701290245011574300,10.21457421875,0.04331418499350548,-0.2711385488510132,-0.39899611473083496
1701290245021649400,10.2246494140625,0.056714676320552826,-0.23453660309314728,-0.41171351075172424
1701290245031725300,10.234725341796874,0.06157547980546951,-0.1977013647556305,-0.3937795162200928
1701290245041800200,10.24480029296875,0.05215348303318024,-0.1748940497636795,-0.35620951652526855
1701290245051876400,10.25487646484375,0.029521673917770386,-0.1659729927778244,-0.3189694583415985
1701290245061951500,10.264951416015625,-0.007879494689404964,-0.142596036195755,-0.29500874876976013
1701290245072027100,10.275027099609375,-0.044059868901968,-0.10156656801700592,-0.2735100984573364
1701290245082102300,10.285102294921876,-0.10313969850540161,-0.05794665589928627,-0.2622065842151642
1701290245092178400,10.295178466796875,-0.19496682286262512,-0.018626680597662926,-0.2773224115371704
1701290245102253300,10.30525341796875,-0.2769263982772827,0.012168249115347862,-0.30063945055007935
1701290245112329200,10.3153291015625,-0.31552600860595703,0.0714012160897255,-0.31867438554763794
1701290245122405400,10.3254052734375,-0.3243162930011749,0.135296031832695,-0.3247533142566681
1701290245132480300,10.335480224609375,-0.330849826335907,0.14467889070510864,-0.3669705390930176
1701290245142556400,10.345556396484374,-0.3405115008354187,0.058390337973833084,-0.4569896459579468
1701290245152631300,10.35563134765625,-0.34596672654151917,-0.122367724776268,-0.5362898111343384
1701290245162707500,10.36570751953125,-0.3261280357837677,-0.3701695203781128,-0.5265626311302185
1701290245172782300,10.3757822265625,-0.31036773324012756,-0.5726941227912903,-0.4140278100967407
1701290245182858200,10.385858154296875,-0.29587265849113464,-0.6370004415512085,-0.2865433394908905
1701290245192933600,10.39593359375,-0.277426540851593,-0.5319027900695801,-0.1957886815071106
1701290245203009300,10.40600927734375,-0.23287345468997955,-0.295354425907135,-0.09909781813621521
1701290245213084400,10.41608447265625,-0.14759159088134766,0.028437234461307526,0.021991850808262825
1701290245223160600,10.42616064453125,-0.06821287423372269,0.3831822872161865,0.11644645035266876
1701290245233236500,10.436236572265624,-0.03852928429841995,0.6554034352302551,0.19052493572235107
1701290245243311400,10.446311279296875,-0.04520555958151817,0.7450177073478699,0.22077737748622894
1701290245253387500,10.456387451171874,-0.07047869265079498,0.66916823387146,0.14757347106933594
1701290245263462700,10.466462646484375,-0.11122452467679977,0.5750289559364319,-0.08090310543775558
1701290245273538300,10.476538330078125,-0.17124046385288239,0.46857360005378723,-0.4276876747608185
1701290245283613400,10.486613525390625,-0.21821701526641846,0.2939349412918091,-0.7724975347518921
1701290245293689600,10.496689697265625,-0.2531512975692749,0.0774894654750824,-0.9933872818946838
1701290245303764200,10.50676416015625,-0.3165401220321655,-0.1519905924797058,-0.9990734457969666
1701290245313840400,10.51684033203125,-0.3840951919555664,-0.3817952871322632,-0.8244954943656921
1701290245323915500,10.52691552734375,-0.36173051595687866,-0.47287195920944214,-0.5757684707641602
1701290245333991400,10.536991455078125,-0.25821423530578613,-0.19717831909656525,-0.3295312821865082
1701290245344067300,10.5470673828125,-0.14328952133655548,0.29133251309394836,-0.2629786431789398
1701290245354142500,10.557142578125,-0.06102367118000984,0.4567126929759979,-0.40320178866386414
1701290245364218400,10.56721826171875,-0.026150111109018326,0.15508732199668884,-0.6164171099662781
1701290245374293200,10.577293212890625,-0.046067360788583755,-0.4358111321926117,-0.7761428952217102
1701290245384369400,10.587369384765625,-0.04541248828172684,-0.9969644546508789,-0.8727929592132568
1701290245394444500,10.597444580078125,-0.03226366266608238,-1.3347790241241455,-0.9300283193588257
1701290245404520400,10.6075205078125,-0.0400153249502182,-1.337126612663269,-0.9506585001945496
1701290245414595300,10.61759521484375,-0.061225272715091705,-1.1185235977172852,-0.9318890571594238
1701290245424671500,10.62767138671875,-0.08941137045621872,-0.809418797492981,-0.8600297570228577
1701290245434746600,10.63774658203125,-0.12231019884347916,-0.41423365473747253,-0.7159104347229004
1701290245444822500,10.647822509765625,-0.10419537872076035,0.0018956380663439631,-0.5326082706451416
1701290245454898400,10.6578984375,-0.044681984931230545,0.3923235833644867,-0.3683497905731201
1701290245464973600,10.6679736328125,0.0035113778430968523,0.7075150609016418,-0.24962180852890015
1701290245475049500,10.678049560546874,0.043892357498407364,0.8737208247184753,-0.17595452070236206
1701290245485124400,10.688124267578125,0.06989280134439468,0.856181263923645,-0.13743722438812256
1701290245495200500,10.698200439453124,0.06478006392717361,0.6954517364501953,-0.13061952590942383
1701290245505275400,10.708275390625,0.06795747578144073,0.4797458350658417,-0.15277409553527832
1701290245515351600,10.7183515625,0.08082747459411621,0.3278449773788452,-0.17349082231521606
1701290245525426400,10.728426513671875,0.10021501779556274,0.22338248789310455,-0.17359548807144165
1701290245535502300,10.73850244140625,0.11806618422269821,0.13962367177009583,-0.17524585127830505
1701290245545577500,10.748577392578126,0.09544822573661804,0.08272790163755417,-0.18222174048423767
1701290245555653400,10.7586533203125,0.0631888210773468,0.07052610069513321,-0.1957990676164627
1701290245565729300,10.768729248046874,0.02257641591131687,0.10180625319480896,-0.20832283794879913
1701290245575804400,10.778804443359375,-0.014257499016821384,0.1461726576089859,-0.2134329229593277
1701290245585880600,10.788880615234374,-0.041840389370918274,0.17625625431537628,-0.2180284708738327
1701290245595955500,10.79895556640625,-0.06653748452663422,0.19022692739963531,-0.22296597063541412
1701290245606031400,10.80903125,-0.09424101561307907,0.20428335666656494,-0.24341584742069244
1701290245616106500,10.8191064453125,-0.11968591809272766,0.2127881646156311,-0.26567161083221436
1701290245626182700,10.8291826171875,-0.14479313790798187,0.2006433606147766,-0.286912739276886
1701290245636257500,10.839257568359375,-0.16216041147708893,0.17672869563102722,-0.3064515292644501
1701290245646333400,10.84933349609375,-0.18757788836956024,0.14604029059410095,-0.32494452595710754
1701290245656408600,10.85940869140625,-0.22626855969429016,0.1293603926897049,-0.350462406873703
1701290245666484500,10.869484375,-0.27526405453681946,0.13135749101638794,-0.3662871718406677
1701290245676560400,10.879560302734374,-0.3136165142059326,0.13908758759498596,-0.38143229484558105
1701290245686635500,10.889635498046875,-0.33320140838623047,0.1358068287372589,-0.38176998496055603
1701290245696711400,10.89971142578125,-0.33347198367118835,0.11830960214138031,-0.3809012770652771
1701290245706786300,10.909786376953125,-0.33840227127075195,0.11014461517333984,-0.3889256417751312
1701290245716862500,10.919862548828124,-0.3584716022014618,0.1277981698513031,-0.3928993344306946
1701290245726937600,10.9299375,-0.3773062825202942,0.15828311443328857,-0.39360854029655457
1701290245737013200,10.94001318359375,-0.38041603565216064,0.18232320249080658,-0.39135152101516724
1701290245747088400,10.95008837890625,-0.380275696516037,0.17776787281036377,-0.3828938603401184
1701290245757164500,10.96016455078125,-0.3805529475212097,0.15875636041164398,-0.3727157711982727
1701290245767240400,10.970240478515626,-0.38531947135925293,0.1546657383441925,-0.363722026348114
1701290245777315300,10.9803154296875,-0.3923105299472809,0.16936185956001282,-0.36219894886016846
1701290245787391500,10.9903916015625,-0.39198774099349976,0.17003031075000763,-0.3544406294822693
1701290245797466600,11.000466552734375,-0.37656059861183167,0.1429840475320816,-0.3505862355232239
1701290245807542500,11.01054248046875,-0.36142319440841675,0.10705481469631195,-0.347730815410614
1701290245817617400,11.020617431640625,-0.3491281569004059,0.08080403506755829,-0.36002475023269653
1701290245827693600,11.030693603515624,-0.35002273321151733,0.054246727377176285,-0.3771243691444397
1701290245837768400,11.0407685546875,-0.355021208524704,0.026753051206469536,-0.3838547170162201
1701290245847844400,11.05084423828125,-0.34493979811668396,0.013713947497308254,-0.372051864862442
1701290245857919500,11.06091943359375,-0.3255237638950348,0.011373561806976795,-0.34425270557403564
1701290245867995400,11.070995361328125,-0.3000943064689636,0.03229722008109093,-0.3150847256183624
1701290245878071600,11.081071533203126,-0.2887558937072754,0.07339325547218323,-0.29679998755455017
1701290245888146400,11.091146484375,-0.27176332473754883,0.1380436271429062,-0.2910595238208771
1701290245898222300,11.101222412109376,-0.2571937143802643,0.22452977299690247,-0.2729199528694153
1701290245908297500,11.11129736328125,-0.23499520123004913,0.30501291155815125,-0.23632358014583588
1701290245918373400,11.121373291015624,-0.21733763813972473,0.3866739571094513,-0.18382816016674042
1701290245928448500,11.131448486328125,-0.20094749331474304,0.48216956853866577,-0.11485814303159714
1701290245938524400,11.1415244140625,-0.175662100315094,0.5946441888809204,-0.0446564182639122
1701290245948599300,11.151599365234375,-0.1808219850063324,0.674034595489502,0.01937849074602127
1701290245958675500,11.161675537109375,-0.20628473162651062,0.6827465891838074,0.08428771793842316
1701290245968750600,11.17175048828125,-0.24408777058124542,0.6494318246841431,0.12631027400493622
1701290245978826500,11.181826416015625,-0.26754888892173767,0.60408616065979,0.15184199810028076
1701290245988902400,11.19190234375,-0.24633227288722992,0.5672940611839294,0.15908658504486084
1701290245998977500,11.2019775390625,-0.18944023549556732,0.5094369053840637,0.15646684169769287
1701290246009053400,11.212053466796876,-0.1419648677110672,0.40343108773231506,0.13017505407333374
1701290246019128600,11.222128662109375,-0.1375109851360321,0.27754560112953186,0.08542275428771973
1701290246029204500,11.23220458984375,-0.14605547487735748,0.20932552218437195,0.04355679824948311
1701290246039279400,11.242279296875,-0.07340151071548462,0.20732656121253967,0.027249997481703758
1701290246049355500,11.25235546875,0.02478337660431862,0.21988868713378906,0.06955377757549286
1701290246059430400,11.262430419921875,0.11546081304550171,0.24107199907302856,0.161334827542305
1701290246069506300,11.27250634765625,0.18951986730098724,0.23806609213352203,0.2776569128036499
1701290246079581400,11.28258154296875,0.24189811944961548,0.16506299376487732,0.407288134098053
1701290246089657600,11.29265771484375,0.29344919323921204,0.0803542286157608,0.5225814580917358
1701290246099733200,11.302733154296876,0.36681634187698364,0.04940137267112732,0.6392441391944885
1701290246109808400,11.312808349609375,0.44518786668777466,0.08938926458358765,0.7898890376091003
1701290246119884500,11.322884521484376,0.5203164219856262,0.18764206767082214,0.9800121188163757
1701290246129959400,11.33295947265625,0.5825185179710388,0.2953624129295349,1.1908303499221802
1701290246140035300,11.343035400390624,0.6392574310302734,0.40215304493904114,1.3799033164978027
1701290246150110500,11.3531103515625,0.7054892182350159,0.5253601670265198,1.5203739404678345
1701290246160186600,11.3631865234375,0.7820452451705933,0.6436189413070679,1.6318261623382568
1701290246170261500,11.373261474609375,0.861638069152832,0.7058591246604919,1.7335602045059204
1701290246180337400,11.38333740234375,0.9307332634925842,0.6820051670074463,1.805404782295227
1701290246190414000,11.3934140625,0.9827359914779663,0.556715190410614,1.8148223161697388
1701290246200489200,11.4034892578125,1.0235321521759033,0.35690033435821533,1.7173258066177368
1701290246210565000,11.413565185546876,1.063812494277954,0.20211581885814667,1.5353666543960571
1701290246220640300,11.42364013671875,1.1027244329452515,0.11176514625549316,1.328910231590271
1701290246230716200,11.433716064453124,1.1159675121307373,0.03880066052079201,1.1576342582702637
1701290246240791000,11.443791015625,1.1158440113067627,0.006591590121388435,1.0380796194076538
1701290246250867200,11.4538671875,1.105297327041626,0.01398985181003809,0.9455335140228271
1701290246260942300,11.4639423828125,1.0801140069961548,-0.017002951353788376,0.8574313521385193
1701290246271018200,11.474018310546874,1.0201150178909302,-0.10128907114267349,0.7652295231819153
1701290246281093000,11.484093017578125,0.9244124889373779,-0.1512206792831421,0.6810866594314575
1701290246291169300,11.494169189453125,0.8277503848075867,-0.13419854640960693,0.6307563781738281
1701290246301245200,11.5042451171875,0.7590677738189697,-0.12133362144231796,0.6033987998962402
1701290246311320300,11.5143203125,0.7130395174026489,-0.18571420013904572,0.5677225589752197
1701290246321396200,11.524396240234376,0.681790292263031,-0.30812346935272217,0.5362905859947205
1701290246331471000,11.53447119140625,0.6463177800178528,-0.42156535387039185,0.5184178352355957
1701290246341547300,11.54454736328125,0.6070718169212341,-0.49362942576408386,0.49359771609306335
1701290246351622100,11.5546220703125,0.5816562175750732,-0.5093244910240173,0.43767958879470825
1701290246361698000,11.564697998046874,0.5685383081436157,-0.44536229968070984,0.3590678870677948
1701290246371773200,11.574773193359375,0.569576621055603,-0.33713382482528687,0.2660977244377136
1701290246381849300,11.584849365234374,0.5507861971855164,-0.2565667927265167,0.2020082175731659
1701290246391924200,11.59492431640625,0.542072594165802,-0.30855756998062134,0.18431417644023895
1701290246402000100,11.605000244140625,0.535652220249176,-0.4452880024909973,0.1874990612268448
1701290246412076300,11.615076171875,0.52533358335495,-0.5983518362045288,0.19278836250305176
1701290246422151200,11.625151123046875,0.4918072819709778,-0.7199856042861938,0.1724575161933899
1701290246432227000,11.63522705078125,0.45890259742736816,-0.8162742853164673,0.11894796043634415
1701290246442302200,11.64530224609375,0.42399173974990845,-0.8780348896980286,0.060072656720876694
1701290246452378400,11.65537841796875,0.39235925674438477,-0.9080471396446228,0.012928581796586514
1701290246462453200,11.665453369140625,0.3553354740142822,-0.8957329392433167,-0.009641974233090878
1701290246472529200,11.675529052734374,0.32159721851348877,-0.8536131381988525,-0.009563411585986614
1701290246482604300,11.685604248046875,0.29059481620788574,-0.8007624745368958,0.010163688100874424
1701290246492680200,11.69568017578125,0.25175419449806213,-0.720502495765686,0.038672029972076416
1701290246502756000,11.705756103515625,0.20865733921527863,-0.621726930141449,0.049130529165267944
1701290246512831200,11.715831298828125,0.16062456369400024,-0.5034077763557434,0.05212312191724777
1701290246522907100,11.7259072265625,0.10553468018770218,-0.37136104702949524,0.04522792994976044
1701290246532982000,11.73598193359375,0.037348970770835876,-0.24647316336631775,0.02857412025332451
1701290246543058200,11.74605810546875,-0.03963875398039818,-0.1562282145023346,0.006243781186640263
1701290246553133300,11.75613330078125,-0.12415044009685516,-0.10409604012966156,-0.017299627885222435
1701290246563209200,11.766209228515624,-0.20503517985343933,-0.08660706132650375,-0.052439507097005844
1701290246573284000,11.7762841796875,-0.27379000186920166,-0.08258569240570068,-0.09660083800554276
1701290246583360300,11.7863603515625,-0.3297552764415741,-0.0954519510269165,-0.13875362277030945
1701290246593435400,11.796435302734375,-0.37219753861427307,-0.11764567345380783,-0.17702165246009827
1701290246603511000,11.806510986328124,-0.400482714176178,-0.13941967487335205,-0.20962326228618622
1701290246613587200,11.816587158203125,-0.4262104332447052,-0.13940049707889557,-0.24058571457862854
1701290246623662300,11.826662353515625,-0.4512404203414917,-0.13123178482055664,-0.2837078869342804
1701290246633738200,11.83673828125,-0.48096635937690735,-0.10373731702566147,-0.3235016465187073
1701290246643813000,11.846813232421875,-0.4936368763446808,-0.08450476080179214,-0.3645271062850952
1701290246653889300,11.85688916015625,-0.48747992515563965,-0.11143278330564499,-0.3898598849773407
1701290246663964200,11.866964111328125,-0.4645487666130066,-0.1997264325618744,-0.3844166398048401
1701290246674040000,11.8770400390625,-0.4267236292362213,-0.3208507299423218,-0.36245596408843994
1701290246684115200,11.887115234375,-0.36084768176078796,-0.41578975319862366,-0.33904996514320374
1701290246694191000,11.897191162109374,-0.2644108831882477,-0.4629729688167572,-0.33319953083992004
1701290246704266200,11.907266357421875,-0.16650961339473724,-0.4558809697628021,-0.34285590052604675
1701290246714342100,11.917342041015624,-0.06539338827133179,-0.4284570813179016,-0.35529738664627075
1701290246724418000,11.92741796875,0.03334623947739601,-0.42236295342445374,-0.35197722911834717
1701290246734493200,11.9374931640625,0.12840405106544495,-0.43369683623313904,-0.31924402713775635
1701290246744569300,11.9475693359375,0.1989346742630005,-0.42225325107574463,-0.25293397903442383
1701290246754644200,11.957644287109375,0.23531611263751984,-0.399291455745697,-0.17016108334064484
1701290246764720000,11.96772021484375,0.2421114295721054,-0.3995732367038727,-0.09275736659765244
1701290246774795300,11.977795166015625,0.22606775164604187,-0.319191575050354,-0.03501763939857483
1701290246784871200,11.98787109375,0.19704169034957886,-0.12311367690563202,-0.04256051033735275
1701290246794946300,11.9979462890625,0.1464104801416397,0.1396085023880005,-0.11381551623344421
1701290246805022200,12.008022216796874,0.030612504109740257,0.39081594347953796,-0.240367591381073
1701290246815098400,12.018098388671875,-0.16806703805923462,0.5684834122657776,-0.3875266909599304
1701290246825173200,12.02817333984375,-0.4140333831310272,0.6116197109222412,-0.5526471734046936
1701290246835249200,12.038249267578125,-0.5829278826713562,0.5690943598747253,-0.6676142811775208
1701290246845324300,12.04832421875,-0.6533114910125732,0.43846550583839417,-0.7112442851066589
1701290246855400200,12.058400146484376,-0.6573464274406433,0.17500589787960052,-0.7243697047233582
1701290246865475000,12.06847509765625,-0.6544467806816101,-0.19939672946929932,-0.7226133346557617
1701290246875551200,12.07855126953125,-0.6636102199554443,-0.6046371459960938,-0.662365734577179
1701290246885626000,12.088626220703125,-0.5829907059669495,-0.9848214983940125,-0.5244570970535278
1701290246895702000,12.098701904296876,-0.40781545639038086,-1.1851400136947632,-0.3598572313785553
1701290246905777200,12.108777099609375,-0.21728144586086273,-0.9768586754798889,-0.35550644993782043
1701290246915853300,12.118853271484374,-0.10573361814022064,-0.38113242387771606,-0.36177659034729004
1701290246925928200,12.12892822265625,-0.07197832316160202,0.2994745969772339,-0.261809766292572
1701290246936004000,12.139004150390624,-0.06313582509756088,0.8190048336982727,-0.07844367623329163
1701290246946080300,12.149080322265625,-0.01655527390539646,1.131587028503418,0.1317359209060669
1701290246956155400,12.1591552734375,0.03688211739063263,1.354864239692688,0.3622990846633911
1701290246966231000,12.16923095703125,0.04921228811144829,1.486877202987671,0.5548006296157837
1701290246976306200,12.17930615234375,0.014396250247955322,1.3587801456451416,0.5561167597770691
1701290246986382300,12.18938232421875,-0.06641284376382828,0.919697105884552,0.21757467091083527
1701290246996457200,12.199457275390625,-0.15039190649986267,0.30146530270576477,-0.3738444447517395
1701290247006533000,12.209533203125,-0.23829220235347748,-0.28117549419403076,-0.9336012005805969
1701290247016608300,12.219608154296875,-0.3459100127220154,-0.7168878316879272,-1.2132607698440552
1701290247026684200,12.22968408203125,-0.455851674079895,-1.0570895671844482,-1.1895238161087036
1701290247036760000,12.239760009765625,-0.4745577275753021,-1.3849129676818848,-0.9897060394287109
1701290247046835200,12.249835205078124,-0.3908796012401581,-1.5697270631790161,-0.7247231006622314
1701290247056911000,12.2599111328125,-0.22408662736415863,-1.1695724725723267,-0.4257126748561859
1701290247066986000,12.269986083984374,-0.08441874384880066,-0.2834671437740326,-0.37493154406547546
1701290247077062100,12.280062255859375,0.0012745888670906425,0.14753831923007965,-0.5628430843353271
1701290247087137300,12.29013720703125,0.02707742340862751,0.02582360804080963,-0.8010154962539673
1701290247097213200,12.300213134765626,0.009101086296141148,-0.32729023694992065,-0.9553842544555664
