time,seconds_elapsed,z,y,x
1701290234852909600,0.05590966796875,-0.017598019912838936,-0.025885365903377533,-0.035269640386104584
1701290234862985500,0.0659853515625,-0.020361270755529404,-0.024517303332686424,-0.016719214618206024
1701290234873060400,0.076060302734375,-0.023513920605182648,-0.016145389527082443,0.0020624627359211445
1701290234883136500,0.086136474609375,-0.016179120168089867,0.004147307015955448,0.014315596781671047
1701290234893211600,0.096211669921875,-0.011175841093063354,0.04048427566885948,0.026321394369006157
1701290234903287300,0.106287353515625,-0.014367401599884033,0.06784976273775101,0.037483975291252136
1701290234913362400,0.116362548828125,-0.024184346199035645,0.10533694922924042,0.03401786834001541
1701290234923438600,0.1264384765625,-0.04731914773583412,0.15512266755104065,0.00981380045413971
1701290234933513500,0.136513427734375,-0.06123017147183418,0.17646577954292297,-0.04578421264886856
1701290234943589400,0.14658935546875,-0.14044791460037231,0.17516444623470306,-0.14109569787979126
1701290234953664500,0.15666455078125,-0.1673961728811264,0.17177876830101013,-0.21779152750968933
1701290234963740700,0.16674072265625,-0.20038732886314392,0.11668729782104492,-0.22363273799419403
1701290234973815600,0.176815673828125,-0.21365121006965637,0.09688137471675873,-0.19909410178661346
1701290234983891500,0.186891357421875,-0.20814406871795654,0.11351614445447922,-0.16927970945835114
1701290234993967600,0.196967529296875,-0.19578327238559723,0.12162866443395615,-0.15424217283725739
1701290235004042500,0.20704248046875,-0.18713945150375366,0.15012821555137634,-0.15822173655033112
1701290235014118400,0.217118408203125,-0.1858089417219162,0.18357698619365692,-0.164917454123497
1701290235024193500,0.227193603515625,-0.1783018708229065,0.2141002118587494,-0.16640569269657135
1701290235034269700,0.237269775390625,-0.17245356738567352,0.22549666464328766,-0.16281016170978546
1701290235044344300,0.24734423828125,-0.11156807094812393,0.1203174740076065,-0.14486443996429443
1701290235054420500,0.25742041015625,-0.12250220775604248,0.20941460132598877,-0.11804667115211487
1701290235064495600,0.26749560546875,-0.15917126834392548,0.3161394000053406,-0.09723662585020065
1701290235074571300,0.2775712890625,-0.1715586930513382,0.4234496057033539,-0.1024087518453598
1701290235084646400,0.287646484375,-0.17646120488643646,0.4660821557044983,-0.14516699314117432
1701290235094722600,0.29772265625,-0.18262961506843567,0.3831430673599243,-0.19165167212486267
1701290235104798500,0.307798583984375,-0.1607016772031784,0.24276946485042572,-0.1882590800523758
1701290235114873300,0.317873291015625,-0.1477978676557541,0.17578618228435516,-0.16249778866767883
1701290235124949500,0.327949462890625,-0.1582922786474228,0.16353009641170502,-0.13467958569526672
1701290235135024600,0.338024658203125,-0.16287025809288025,0.19901032745838165,-0.10155278444290161
1701290235145100500,0.3481005859375,-0.17228984832763672,0.24414068460464478,-0.07614212483167648
1701290235155175400,0.358175537109375,-0.20185840129852295,0.30944299697875977,-0.06357040256261826
1701290235165251600,0.36825146484375,-0.2817661762237549,0.4156477451324463,-0.06216221675276756
1701290235175326500,0.378326416015625,-0.3231186866760254,0.5353610515594482,-0.06011318042874336
1701290235185403000,0.38840283203125,-0.370491623878479,0.6396641135215759,-0.06695645302534103
1701290235195477800,0.398477783203125,-0.41575977206230164,0.7265084385871887,-0.0642099380493164
1701290235205553700,0.4085537109375,-0.45833441615104675,0.8053188920021057,-0.07733943313360214
1701290235215629800,0.4186298828125,-0.5423182249069214,0.9139042496681213,-0.15737007558345795
1701290235225705000,0.428705078125,-0.7075506448745728,0.9796692132949829,-0.3783781826496124
1701290235235780600,0.438780517578125,-0.9215832948684692,0.9515795111656189,-0.6741997003555298
1701290235245855700,0.448855712890625,-1.1280765533447266,0.8368363380432129,-0.9461720585823059
1701290235255932000,0.458931884765625,-1.2780336141586304,0.697178065776825,-1.1332178115844727
1701290235266006800,0.4690068359375,-1.3291205167770386,0.6003409624099731,-1.275368094444275
1701290235276082700,0.479082763671875,-1.3558613061904907,0.597136914730072,-1.3635666370391846
1701290235286157800,0.48915771484375,-1.389541506767273,0.6107220649719238,-1.3648556470870972
1701290235296234000,0.49923388671875,-1.4306796789169312,0.6180984973907471,-1.283697247505188
1701290235306308900,0.509308837890625,-1.4690688848495483,0.6679120659828186,-1.216171383857727
1701290235316384800,0.519384765625,-1.5143961906433105,0.8634770512580872,-1.1579601764678955
1701290235326461000,0.5294609375,-1.528960943222046,1.6940258741378784,-0.9413325786590576
1701290235336535800,0.539535888671875,-1.6851001977920532,1.969702124595642,-1.0351121425628662
1701290235346611700,0.54961181640625,-1.8696116209030151,1.787208080291748,-1.2361077070236206
1701290235356686800,0.559686767578125,-1.9687461853027344,1.5561386346817017,-1.353398084640503
1701290235366762800,0.5697626953125,-2.032705783843994,1.4005087614059448,-1.344793438911438
1701290235376837600,0.579837646484375,-2.1126651763916016,1.2318334579467773,-1.2054702043533325
1701290235386913800,0.589913818359375,-2.180133581161499,0.966268002986908,-0.9519869089126587
1701290235396989000,0.599989013671875,-2.198364734649658,0.6481605768203735,-0.6512960195541382
1701290235407064800,0.61006494140625,-2.2093794345855713,0.31008821725845337,-0.3533918261528015
1701290235417139700,0.6201396484375,-2.189608097076416,0.053105950355529785,-0.1157856434583664
1701290235427216000,0.6302158203125,-2.1126182079315186,-0.04222319275140762,-0.0018241083016619086
1701290235437291800,0.640291748046875,-2.079620361328125,0.04920871555805206,0.02428392507135868
1701290235447366700,0.65036669921875,-2.1886022090911865,0.22888028621673584,-0.010084550827741623
1701290235457442800,0.66044287109375,-2.327321767807007,0.5310843586921692,-0.08123436570167542
1701290235467518000,0.67051806640625,-2.285590648651123,0.9453157782554626,-0.08538546413183212
1701290235477593900,0.68059375,-2.1483607292175293,0.9955589771270752,-0.24439933896064758
1701290235487668700,0.690668701171875,-1.8559449911117554,0.739311695098877,-0.41751307249069214
1701290235497745000,0.700744873046875,-1.5496975183486938,0.3638720214366913,-0.49916213750839233
1701290235507819800,0.71081982421875,-1.4278337955474854,-0.006156614050269127,-0.46698591113090515
1701290235517896000,0.72089599609375,-1.4697437286376953,-0.14991430938243866,-0.37636759877204895
1701290235527970800,0.730970703125,-1.4927513599395752,-0.10966911911964417,-0.34126925468444824
1701290235538046700,0.741046630859375,-1.46131432056427,-0.11054743081331253,-0.4141663610935211
1701290235548123000,0.751122802734375,-1.499674677848816,-0.25443246960639954,-0.5545834302902222
1701290235558197800,0.76119775390625,-1.6827105283737183,-0.37594372034072876,-0.616695761680603
1701290235568273700,0.771273681640625,-1.9138414859771729,-0.48403969407081604,-0.5912312865257263
1701290235578348800,0.781348876953125,-2.0798871517181396,-0.4887436330318451,-0.5232098698616028
1701290235588425000,0.791425048828125,-2.097105026245117,-0.48904141783714294,-0.43534228205680847
1701290235598499800,0.801499755859375,-2.022688388824463,-0.4973299503326416,-0.26341870427131653
1701290235608575700,0.81157568359375,-1.9343777894973755,-0.5663094520568848,-0.05609911307692528
1701290235618651000,0.82165087890625,-1.7639466524124146,-0.5780888795852661,0.13866691291332245
1701290235628726800,0.831726806640625,-1.5535987615585327,-0.5360901355743408,0.25635063648223877
1701290235638802000,0.841802001953125,-1.278534173965454,-0.45577239990234375,0.27967405319213867
1701290235648877800,0.8518779296875,-1.0110825300216675,-0.3841697573661804,0.22744764387607574
1701290235658954000,0.8619541015625,-0.7700014114379883,-0.3394981622695923,0.14802978932857513
1701290235669028900,0.87202880859375,-0.5477936863899231,-0.3448687493801117,0.06984569877386093
1701290235679104800,0.882104736328125,-0.32918471097946167,-0.37386658787727356,0.010677719488739967
1701290235689180000,0.892179931640625,-0.1725846827030182,-0.41591188311576843,-0.036739643663167953
1701290235699255800,0.902255859375,-0.06647290289402008,-0.4861711263656616,-0.052033644169569016
1701290235709330700,0.91233056640625,0.0497589036822319,-0.3198367655277252,-0.15824158489704132
1701290235719406800,0.92240673828125,0.00981148798018694,0.192047581076622,-0.4643397033214569
1701290235729482000,0.93248193359375,0.06797654181718826,0.27779969573020935,-0.5635281801223755
1701290235739557600,0.9425576171875,0.20449869334697723,0.04798220098018646,-0.4984796345233917
1701290235749633800,0.9526337890625,0.2788848578929901,-0.3135093152523041,-0.36649712920188904
1701290235759709000,0.962708984375,0.26540207862854004,-0.5870482325553894,-0.23682676255702972
1701290235769784800,0.972784912109375,0.19121454656124115,-0.7034983038902283,-0.14840033650398254
1701290235779859700,0.982859619140625,0.11908149719238281,-0.6597856879234314,-0.09663648903369904
1701290235789935900,0.992935791015625,0.07663056999444962,-0.5367001891136169,-0.09286696463823318
1701290235800011000,1.003010986328125,0.06796544790267944,-0.40245532989501953,-0.12090765684843063
1701290235810086700,1.013086669921875,0.07032573223114014,-0.3312232792377472,-0.1672547161579132
1701290235820161800,1.023161865234375,0.08380825072526932,-0.29289957880973816,-0.19289350509643555
1701290235830238000,1.033238037109375,0.08557157218456268,-0.24341009557247162,-0.18684013187885284
1701290235840312800,1.043312744140625,0.061695002019405365,-0.19228166341781616,-0.1560068428516388
1701290235850388700,1.053388671875,0.015416627749800682,-0.14710696041584015,-0.13404367864131927
1701290235860463900,1.0634638671875,-0.02599739097058773,-0.08327099680900574,-0.12683023512363434
1701290235870539800,1.073539794921875,-0.03197448328137398,-0.05087960883975029,-0.12459812313318253
1701290235880615700,1.08361572265625,-0.014455409720540047,-0.047836679965257645,-0.12798379361629486
1701290235890690800,1.09369091796875,-0.00487496005371213,-0.04350820928812027,-0.12272840738296509
1701290235900767000,1.10376708984375,-0.012381079606711864,-0.025738269090652466,-0.10423355549573898
1701290235910841600,1.113841552734375,-0.030616356059908867,-0.0053507620468735695,-0.09505078196525574
1701290235920917800,1.123917724609375,-0.033971939235925674,0.020021971315145493,-0.08596035093069077
1701290235930993000,1.133992919921875,-0.03761846944689751,0.05024510622024536,-0.08210869878530502
1701290235941068800,1.14406884765625,-0.04195675626397133,0.07578428089618683,-0.07533175498247147
1701290235951143700,1.154143798828125,-0.046554066240787506,0.08780115097761154,-0.07061810046434402
1701290235961219800,1.1642197265625,-0.06388538330793381,0.07755251228809357,-0.07862542569637299
1701290235971295000,1.174294921875,-0.051591094583272934,0.07348329573869705,-0.08582344651222229
1701290235981371000,1.184370849609375,-0.045461297035217285,0.05438337102532387,-0.09239532798528671
1701290235991446800,1.19444677734375,-0.04767623916268349,0.013131502084434032,-0.0958099365234375
1701290236001522000,1.20452197265625,-0.051636360585689545,-0.023095745593309402,-0.10024463385343552
1701290236011597800,1.214597900390625,-0.053185027092695236,-0.0469321571290493,-0.10416949540376663
1701290236021672700,1.224672607421875,-0.04988323897123337,-0.05921625345945358,-0.10597485303878784
1701290236031748900,1.234748779296875,-0.03944864869117737,-0.05982646346092224,-0.10179543495178223
1701290236041823700,1.24482373046875,-0.02868574857711792,-0.0632811188697815,-0.09138939529657364
1701290236051900000,1.25489990234375,-0.02384742721915245,-0.07117807120084763,-0.08031263947486877
1701290236061974800,1.264974853515625,-0.01974882185459137,-0.06743499636650085,-0.07648488134145737
1701290236072050700,1.27505078125,-0.01613025553524494,-0.0637158751487732,-0.07959669828414917
1701290236082125800,1.285125732421875,-0.011417259462177753,-0.05863403156399727,-0.0824822336435318
1701290236092201700,1.29520166015625,-0.008836139924824238,-0.05913940444588661,-0.0762215331196785
1701290236102277600,1.305277587890625,-0.009261180646717548,-0.06606762111186981,-0.06447752565145493
1701290236112352800,1.315352783203125,-0.005302714183926582,-0.07441894710063934,-0.04830026254057884
1701290236122429000,1.325428955078125,-0.003326116129755974,-0.07457580417394638,-0.04039919748902321
1701290236132503800,1.33550390625,-0.0063791642896831036,-0.07699395716190338,-0.03859250620007515
1701290236142579700,1.345579833984375,-0.004412419628351927,-0.07900171726942062,-0.04226553812623024
1701290236152654800,1.35565478515625,-0.0048197191208601,-0.07635179162025452,-0.0450483039021492
1701290236162731000,1.36573095703125,-0.005176583305001259,-0.0724814161658287,-0.04728242754936218
1701290236172806000,1.375805908203125,-0.005145429167896509,-0.08449757099151611,-0.04825964570045471
1701290236182881800,1.3858818359375,-0.005961155518889427,-0.09255523234605789,-0.05010015517473221
1701290236192957000,1.39595703125,-0.011822478845715523,-0.09637171030044556,-0.06038495898246765
1701290236203033000,1.406033203125,-0.009890887886285782,-0.09701219946146011,-0.06700398027896881
1701290236213108000,1.41610791015625,-0.012753196991980076,-0.09157543629407883,-0.07270196080207825
1701290236223184000,1.426183837890625,-0.016983894631266594,-0.08379633724689484,-0.07123269885778427
1701290236233260000,1.436260009765625,-0.02065647952258587,-0.07616666704416275,-0.06924748420715332
1701290236243335000,1.4463349609375,-0.021782996132969856,-0.07459940016269684,-0.07191544026136398
1701290236253411000,1.4564111328125,-0.02724606730043888,-0.07417357712984085,-0.07186785340309143
1701290236263486000,1.46648583984375,-0.027579495683312416,-0.06861688941717148,-0.06704194098711014
1701290236273561900,1.476561767578125,-0.02617764286696911,-0.06659161299467087,-0.06274775415658951
1701290236283637000,1.486636962890625,-0.027675935998558998,-0.06296385824680328,-0.05794527381658554
1701290236293713000,1.496712890625,-0.029928749427199364,-0.05710197240114212,-0.056052736937999725
1701290236303788000,1.5067880859375,-0.030734354630112648,-0.05286408215761185,-0.05590866133570671
1701290236313864000,1.516864013671875,-0.026951126754283905,-0.050871167331933975,-0.05498785525560379
1701290236323938800,1.526938720703125,-0.025988927111029625,-0.056048616766929626,-0.056400395929813385
1701290236334015000,1.537014892578125,-0.020200394093990326,-0.06727288663387299,-0.052945178002119064
1701290236344090000,1.547090087890625,-0.01589965634047985,-0.07362532615661621,-0.04874830320477486
1701290236354166000,1.557166015625,-0.009607764892280102,-0.06990139186382294,-0.043408848345279694
1701290236364242000,1.567241943359375,-0.004772263579070568,-0.07054081559181213,-0.038843125104904175
1701290236374317000,1.577317138671875,-0.0005814115284010768,-0.0774291604757309,-0.034629449248313904
1701290236384393000,1.58739306640625,0.0012556370347738266,-0.08729936927556992,-0.030834974721074104
1701290236394467800,1.5974677734375,0.0060841855593025684,-0.09556671231985092,-0.019993305206298828
1701290236404544000,1.6075439453125,0.012970054522156715,-0.09731215238571167,-0.009194185957312584
1701290236414619000,1.617618896484375,0.01833965629339218,-0.08866408467292786,-0.00597051065415144
1701290236424695000,1.627695068359375,0.022978616878390312,-0.08447759598493576,-0.007628328166902065
1701290236434770000,1.63777001953125,0.02449704520404339,-0.09367231279611588,-0.008048702962696552
1701290236444845800,1.647845703125,0.02301126718521118,-0.10549727827310562,-0.008162420243024826
1701290236454921000,1.6579208984375,0.021228760480880737,-0.11006215959787369,0.001700851833447814
1701290236464997000,1.6679970703125,0.01901301182806492,-0.1063542440533638,0.012533259578049183
1701290236475072800,1.67807275390625,0.022543564438819885,-0.09845184534788132,0.024069806560873985
1701290236485148000,1.68814794921875,0.024403516203165054,-0.0891086757183075,0.026757733896374702
1701290236495224000,1.69822412109375,0.02681998908519745,-0.08625409752130508,0.029861314222216606
1701290236505299000,1.708298828125,0.029455985873937607,-0.08682427555322647,0.034718386828899384
1701290236515374800,1.718374755859375,0.02590402029454708,-0.08244193345308304,0.03497179225087166
1701290236525450000,1.728449951171875,0.023263495415449142,-0.0662911906838417,0.0358026959002018
1701290236535526100,1.738526123046875,0.02571035735309124,-0.03890293836593628,0.0369851291179657
1701290236545600800,1.748600830078125,0.02956262044608593,-0.013506500981748104,0.0347541980445385
1701290236555677000,1.758677001953125,0.03442799299955368,-0.018056245520710945,0.027396857738494873
1701290236565752000,1.768751953125,0.03685200214385986,-0.03313053399324417,0.0028395839035511017
1701290236575827700,1.77882763671875,0.03692491352558136,-0.05319098383188248,-0.02549896575510502
1701290236585902800,1.78890283203125,0.04061126336455345,-0.06516934931278229,-0.04623939469456673
1701290236595979000,1.79897900390625,0.04056189954280853,-0.065565325319767,-0.05622003972530365
1701290236606055000,1.809054931640625,0.04200027137994766,-0.0579817108809948,-0.049215395003557205
1701290236616129800,1.8191298828125,0.03906881809234619,-0.06040876358747482,-0.03387714922428131
1701290236626206000,1.8292060546875,0.032058846205472946,-0.06658436357975006,-0.015127166174352169
1701290236636281000,1.839281005859375,0.021737368777394295,-0.06485253572463989,-0.005991804413497448
1701290236646357000,1.84935693359375,0.0179293155670166,-0.04583383724093437,0.0005648980149999261
1701290236656431900,1.859431884765625,0.014339430257678032,-0.024177882820367813,0.014258189126849174
1701290236666508000,1.869508056640625,0.016873693093657494,0.0007311953231692314,0.033152785152196884
1701290236676583200,1.879583251953125,0.01933104544878006,0.02074933797121048,0.04830458387732506
1701290236686658800,1.889658935546875,0.020365417003631592,0.02521306648850441,0.04823747277259827
1701290236696734000,1.89973388671875,0.02148151770234108,0.019817404448986053,0.04456518217921257
1701290236706810000,1.90981005859375,0.02220749482512474,0.012265478260815144,0.04376383498311043
1701290236716886000,1.919885986328125,0.02294303849339485,0.013059766963124275,0.04144373908638954
1701290236726961000,1.9299609375,0.02822967804968357,0.005944333039224148,0.040383532643318176
1701290236737037000,1.940037109375,0.030142124742269516,-0.0030527948401868343,0.03295816108584404
1701290236747112000,1.95011181640625,0.03435923904180527,-0.007864328101277351,0.02387731708586216
1701290236757187800,1.960187744140625,0.035688214004039764,-0.01023781206458807,0.022672351449728012
1701290236767263000,1.970262939453125,0.03778039291501045,-0.003329040016978979,0.019906392320990562
1701290236777339000,1.9803388671875,0.04183807969093323,-0.000043803825974464417,0.022061344236135483
1701290236787413800,1.990413818359375,0.04317338764667511,0.0011844467371702194,0.03520750254392624
1701290236797490000,2.000489990234375,0.038828689604997635,0.0030626030638813972,0.0370769277215004
1701290236807565000,2.01056494140625,0.03159208595752716,0.003537978045642376,0.039290811866521835
1701290236817641000,2.020640869140625,0.023649785667657852,0.00005935505032539368,0.04306042939424515
1701290236827715800,2.0307158203125,0.020042266696691513,0.005051982589066029,0.050254955887794495
1701290236837792000,2.0407919921875,0.018963923677802086,0.024184836074709892,0.055459778755903244
1701290236847868000,2.050867919921875,0.019320785999298096,0.042129479348659515,0.058340784162282944
1701290236857943000,2.060943115234375,0.016735045239329338,0.049023550003767014,0.055478621274232864
1701290236868019000,2.07101904296875,0.013062811456620693,0.047657616436481476,0.04751443490386009
1701290236878094000,2.081093994140625,0.010829304344952106,0.04272306337952614,0.03763694688677788
1701290236888170000,2.091169921875,0.008977342396974564,0.026886042207479477,0.029257308691740036
1701290236898244900,2.101244873046875,0.007814548909664154,0.007201364263892174,0.01985730044543743
1701290236908321000,2.111321044921875,0.0033558851573616266,-0.00615359004586935,0.014141091145575047
1701290236918396000,2.12139599609375,-0.0008584822062402964,-0.011807194910943508,0.01474127359688282
1701290236928472000,2.13147216796875,-0.005072401836514473,-0.009294236078858376,0.01007514912635088
1701290236938547000,2.141546875,-0.00829237885773182,-0.013158787973225117,0.010641883127391338
1701290236948622800,2.151622802734375,-0.011629586108028889,-0.017937030643224716,-0.004398319870233536
1701290236958698000,2.161697998046875,-0.010374999605119228,-0.02776392549276352,-0.007071658503264189
1701290236968774000,2.17177392578125,-0.010604031383991241,-0.031585030257701874,-0.004105695988982916
1701290236978849800,2.181849853515625,-0.007752018980681896,-0.027721254155039787,-0.0030048538465052843
1701290236988925000,2.191925048828125,-0.00509604811668396,-0.021816760301589966,0.004945480730384588
1701290236999001000,2.2020009765625,0.0005161275621503592,-0.021293487399816513,0.003722214139997959
1701290237009076000,2.212075927734375,0.00517719192430377,-0.023493260145187378,0.002766671823337674
1701290237019152000,2.22215185546875,0.009964914992451668,-0.025315813720226288,-0.0047837840393185616
1701290237029227000,2.23222705078125,0.010744421742856503,-0.030820302665233612,-0.009507166221737862
1701290237039303200,2.24230322265625,0.005584913771599531,-0.04092760384082794,-0.0029781414195895195
1701290237049377800,2.252377685546875,0.0009440892026759684,-0.05305643752217293,0.004004932940006256
1701290237059454000,2.262453857421875,0.00047461106441915035,-0.06780204176902771,0.01455627754330635
1701290237069529000,2.272529052734375,0.002077301498502493,-0.07522427290678024,0.020101511850953102
1701290237079605000,2.28260498046875,0.00155868218280375,-0.07570462673902512,0.020647170022130013
1701290237089681000,2.292680908203125,0.003606120590120554,-0.06913167983293533,0.017670022323727608
1701290237099756000,2.302756103515625,0.0023211678490042686,-0.06822846829891205,0.01667768321931362
1701290237109832000,2.31283203125,0.004020264372229576,-0.06066402420401573,0.02160612866282463
1701290237119906800,2.32290673828125,0.005314740352332592,-0.05799742043018341,0.020232293754816055
1701290237129983000,2.33298291015625,0.0036076540127396584,-0.0645381435751915,0.015265499241650105
1701290237140058000,2.34305810546875,0.004065300337970257,-0.07403300702571869,0.00946936197578907
1701290237150133800,2.3531337890625,-0.0016288042534142733,-0.07771961390972137,0.009659245610237122
1701290237160209000,2.363208984375,-0.005757582373917103,-0.07560192048549652,0.013109301216900349
1701290237170285000,2.37328515625,-0.011383509263396263,-0.07243941724300385,0.017621761187911034
1701290237180360000,2.38335986328125,-0.013733303174376488,-0.0743771567940712,0.02866571582853794
1701290237190436000,2.39343603515625,-0.016562113538384438,-0.06429442763328552,0.0337720587849617
1701290237200511200,2.40351123046875,-0.01833244413137436,-0.041136130690574646,0.033901676535606384
1701290237210587100,2.413587158203125,-0.01628687046468258,-0.015524245798587799,0.038899894803762436
1701290237220663300,2.423663330078125,-0.012785620987415314,0.00018072035163640976,0.046445056796073914
1701290237230738200,2.43373828125,-0.004939681850373745,0.005112095735967159,0.047542814165353775
1701290237240814300,2.443814453125,-0.006884343922138214,0.0006303945556282997,0.029314056038856506
1701290237250889200,2.45388916015625,-0.010786141268908978,-0.025080561637878418,0.011632798239588737
1701290237260965000,2.463965087890625,-0.0156114362180233,-0.04675068333745003,0.0026828863192349672
1701290237271040300,2.474040283203125,-0.012260913848876953,-0.046922724694013596,0.004592372570186853
1701290237281116200,2.4841162109375,-0.010663414373993874,-0.03971622884273529,0.012676315382122993
1701290237291191000,2.49419091796875,-0.011262092739343643,-0.03666131570935249,0.008666126988828182
1701290237301267200,2.50426708984375,-0.011633473448455334,-0.0507800467312336,0.017964636906981468
1701290237311342300,2.51434228515625,-0.016167504712939262,-0.06310862302780151,0.027158666402101517
1701290237321418200,2.524418212890625,-0.02152847684919834,-0.06363175809383392,0.03300504758954048
1701290237331493000,2.5344931640625,-0.021410232409834862,-0.05056336149573326,0.033317968249320984
1701290237341569300,2.5445693359375,-0.019130434840917587,-0.04131791368126869,0.03765261173248291
1701290237351645200,2.554645263671875,-0.013746856711804867,-0.035921283066272736,0.042558688670396805
1701290237361720000,2.564719970703125,-0.012472771108150482,-0.02830374985933304,0.03952620550990105
1701290237371796200,2.574796142578125,-0.006206353195011616,-0.028595365583896637,0.03829795494675636
1701290237381871000,2.58487109375,-0.0023828246630728245,-0.031541258096694946,0.0354313850402832
1701290237391947300,2.594947265625,0.002064920961856842,-0.03647662699222565,0.04464272782206535
1701290237402022100,2.605022216796875,0.005675503984093666,-0.05124067887663841,0.06040509417653084
1701290237412098000,2.61509814453125,0.02194315753877163,-0.06062405928969383,0.05832862854003906
1701290237422173200,2.625173095703125,0.03181709349155426,-0.057885266840457916,0.041683606803417206
1701290237432249300,2.635249267578125,0.042150747030973434,-0.07019952684640884,0.0260485652834177
1701290237442324200,2.64532421875,0.045326028019189835,-0.09099452197551727,0.04215553030371666
1701290237452400000,2.655400146484375,0.042262062430381775,-0.09825775772333145,0.06753306090831757
1701290237462475300,2.665475341796875,0.03684508427977562,-0.08543719351291656,0.07377272099256516
1701290237472551200,2.67555126953125,0.03667783737182617,-0.06317955255508423,0.06836090981960297
1701290237482627000,2.685626953125,0.03591207414865494,-0.057005468755960464,0.06876169145107269
1701290237492702200,2.6957021484375,0.039812810719013214,-0.0442689023911953,0.07008607685565948
1701290237502778400,2.7057783203125,0.03665512427687645,-0.01933998614549637,0.06672298908233643
1701290237512853200,2.715853271484375,0.031919755041599274,0.004001823253929615,0.056751854717731476
1701290237522929200,2.72592919921875,0.026636872440576553,0.010296300984919071,0.05097178369760513
1701290237533004300,2.73600439453125,0.023075958713889122,0.0009802961722016335,0.05421817675232887
1701290237543080200,2.746080078125,0.015227673575282097,0.006477820686995983,0.05549703910946846
1701290237553155000,2.756155029296875,0.009248344227671623,0.020497232675552368,0.030741095542907715
1701290237563231200,2.766231201171875,0.0018178359605371952,0.020941048860549927,0.01566285267472267
1701290237573306000,2.77630615234375,-0.008345053531229496,0.021011624485254288,0.015238878317177296
1701290237583382000,2.786382080078125,-0.014963358640670776,0.030024006962776184,0.010937701910734177
1701290237593457200,2.79645703125,-0.021223386749625206,0.027303852140903473,0.0027146595530211926
1701290237603533300,2.806533203125,-0.024641819298267365,0.01717079058289528,-0.0019408122170716524
1701290237613609200,2.816609130859375,-0.024896949529647827,0.008653736673295498,-0.006706805434077978
1701290237623684000,2.82668408203125,-0.025877656415104866,0.00003999006003141403,-0.015920625999569893
1701290237633760300,2.83676025390625,-0.02012256532907486,-0.0062402766197919846,-0.019531605765223503
1701290237643835400,2.84683544921875,-0.019293155521154404,-0.010053200647234917,-0.03515847772359848
1701290237653911000,2.8569111328125,-0.020337913185358047,-0.015385914593935013,-0.04356927052140236
1701290237663986200,2.866986083984375,-0.02873355709016323,-0.02408069744706154,-0.05156867206096649
1701290237674062300,2.877062255859375,-0.03931429609656334,-0.041555292904376984,-0.04607377201318741
1701290237684137200,2.88713720703125,-0.04572358727455139,-0.0604562982916832,-0.034878987818956375
1701290237694213000,2.897213134765625,-0.047313228249549866,-0.07776392251253128,-0.026262059807777405
1701290237704288300,2.907288330078125,-0.04104875773191452,-0.09253386408090591,-0.02972557209432125
1701290237714364400,2.917364501953125,-0.030535129830241203,-0.0847260057926178,-0.03199085593223572
1701290237724439000,2.92743896484375,-0.019346123561263084,-0.07128743082284927,-0.03220071271061897
1701290237734515200,2.93751513671875,-0.011450650170445442,-0.04890250042080879,-0.02544613927602768
1701290237744591400,2.94759130859375,-0.00820316281169653,-0.026547564193606377,-0.01785367541015148
1701290237754666000,2.957666015625,-0.011779255233705044,-0.018278714269399643,-0.006518195848912001
1701290237764742100,2.9677421875,-0.01772340200841427,-0.007771649863570929,0.0020607018377631903
1701290237774817300,2.9778173828125,-0.019494935870170593,0.007898655720055103,0.013092580251395702
1701290237784893200,2.98789306640625,-0.012513590976595879,0.03090781718492508,0.028823789209127426
1701290237794968000,2.997968017578125,-0.01059984415769577,0.05920549854636192,0.03803832828998566
1701290237805044200,3.008044189453125,-0.003177727572619915,0.06974963843822479,0.03759787604212761
1701290237815119400,3.018119384765625,-0.006242493167519569,0.04487305134534836,0.03639812394976616
1701290237825195300,3.0281953125,-0.01629679836332798,0.011323253624141216,0.02474655956029892
1701290237835270100,3.038270263671875,-0.02731482870876789,-0.0065247188322246075,0.023511651903390884
1701290237845346300,3.04834619140625,-0.0330384187400341,-0.0023178961127996445,0.022306008264422417
1701290237855421200,3.058421142578125,-0.025509929284453392,0.015382270328700542,0.026437902823090553
1701290237865497000,3.0684970703125,-0.0192472692579031,0.04962936416268349,0.026300422847270966
1701290237875573200,3.0785732421875,-0.02165450155735016,0.07404176145792007,0.013490886427462101
1701290237885648100,3.088648193359375,-0.02310570888221264,0.07337307929992676,-0.011022457852959633
1701290237895724300,3.098724365234375,-0.03148854151368141,0.06956049799919128,-0.017107781022787094
1701290237905799200,3.108799072265625,-0.04782934859395027,0.07275048643350601,-0.022696886211633682
1701290237915875000,3.118875,-0.055920567363500595,0.08156555145978928,-0.02281273528933525
1701290237925950200,3.1289501953125,-0.058144643902778625,0.08826064318418503,-0.020007595419883728
1701290237936026000,3.139026123046875,-0.06095801293849945,0.08850831538438797,-0.015699665993452072
1701290237946101200,3.149101318359375,-0.057018980383872986,0.08473679423332214,-0.01154328417032957
1701290237956177200,3.15917724609375,-0.06053248792886734,0.08931130170822144,-0.009206892922520638
1701290237966252000,3.169251953125,-0.060296595096588135,0.08444448560476303,-0.0013302768347784877
1701290237976328200,3.179328125,-0.06136186048388481,0.08464395999908447,0.0030050831846892834
1701290237986403300,3.1894033203125,-0.06155940890312195,0.08405159413814545,0.005537598393857479
1701290237996479200,3.199479248046875,-0.06011251360177994,0.07581043988466263,0.010998410172760487
1701290238006554000,3.20955419921875,-0.055562861263751984,0.07007374614477158,0.009360283613204956
1701290238016630300,3.21963037109375,-0.048593103885650635,0.05813267081975937,-0.00328893237747252
1701290238026706200,3.2297060546875,-0.04409883916378021,0.0424857959151268,-0.021892791613936424
1701290238036781300,3.23978125,-0.038101132959127426,0.009656211361289024,-0.03754844889044762
1701290238046857200,3.249857177734375,-0.04099660366773605,-0.01656186766922474,-0.04633908346295357
1701290238056932000,3.25993212890625,-0.04188583418726921,-0.026467230170965195,-0.04248601943254471
1701290238067008300,3.27000830078125,-0.04384741559624672,-0.03390764445066452,-0.038373809307813644
1701290238077083100,3.280083251953125,-0.047541484236717224,-0.038817714899778366,-0.0304543636739254
1701290238087159000,3.290158935546875,-0.049609869718551636,-0.03683529794216156,-0.029175598174333572
1701290238097234200,3.300234130859375,-0.054961491376161575,-0.04049261659383774,-0.03525319695472717
1701290238107310300,3.310310302734375,-0.05678396299481392,-0.04391700401902199,-0.03700871765613556
1701290238117385200,3.32038525390625,-0.05623561888933182,-0.055146489292383194,-0.04055498167872429
1701290238127461000,3.330461181640625,-0.056736286729574203,-0.06369500607252121,-0.047444477677345276
1701290238137536300,3.340536376953125,-0.0594167597591877,-0.06241881847381592,-0.04834728688001633
1701290238147612200,3.350612060546875,-0.060404401272535324,-0.06292583048343658,-0.05229491367936134
1701290238157687300,3.360687255859375,-0.06356716901063919,-0.06727556884288788,-0.06733351945877075
1701290238167763200,3.37076318359375,-0.062407564371824265,-0.07325666397809982,-0.08242729306221008
1701290238177839400,3.38083935546875,-0.06402090191841125,-0.08792269229888916,-0.09199975430965424
1701290238187914000,3.3909140625,-0.06841321289539337,-0.09931354969739914,-0.08945883065462112
1701290238197990000,3.400989990234375,-0.06933706253767014,-0.10673844069242477,-0.0806211307644844
1701290238208065000,3.41106494140625,-0.06651033461093903,-0.09794312715530396,-0.0678054466843605
1701290238218141000,3.421140869140625,-0.06690208613872528,-0.08763030171394348,-0.050246432423591614
1701290238228215800,3.4312158203125,-0.05798908695578575,-0.0898597240447998,-0.03035152330994606
1701290238238292000,3.4412919921875,-0.056802116334438324,-0.09053324162960052,-0.018588075414299965
1701290238248366800,3.451366943359375,-0.05382255092263222,-0.0914071574807167,-0.0143909752368927
1701290238258442800,3.46144287109375,-0.05523029714822769,-0.09844376146793365,-0.014075923711061478
1701290238268518000,3.471517822265625,-0.05771034210920334,-0.10690664499998093,-0.004812777042388916
1701290238278594000,3.481593994140625,-0.056965455412864685,-0.10268979519605637,0.0017809432465583086
1701290238288669000,3.4916689453125,-0.056318946182727814,-0.10173999518156052,0.004079923033714294
1701290238298744800,3.501744873046875,-0.05210769176483154,-0.10864344239234924,-0.002142552752047777
1701290238308821000,3.511821044921875,-0.055689189583063126,-0.12751145660877228,-0.009781633503735065
1701290238318896000,3.521896240234375,-0.05618267133831978,-0.13915719091892242,-0.017520779743790627
1701290238328971800,3.5319716796875,-0.05438464134931564,-0.1393316239118576,-0.01782030425965786
1701290238339047000,3.542046875,-0.057415321469306946,-0.14120568335056305,-0.020505303516983986
1701290238349123000,3.552123046875,-0.0605614148080349,-0.14236381649971008,-0.013737968169152737
1701290238359198000,3.562197998046875,-0.06833278387784958,-0.143864244222641,-0.02100280486047268
1701290238369273900,3.57227392578125,-0.07234422117471695,-0.14056293666362762,-0.027000974863767624
1701290238379349000,3.582348876953125,-0.07541884481906891,-0.13915571570396423,-0.01867539994418621
1701290238389425200,3.592425048828125,-0.07886143773794174,-0.12777486443519592,-0.005248841363936663
1701290238399499800,3.602499755859375,-0.0799488052725792,-0.12063386291265488,0.007696784567087889
1701290238409576000,3.612575927734375,-0.08108288049697876,-0.11120114475488663,0.014617252163589
1701290238419651000,3.622651123046875,-0.08552716672420502,-0.1034417599439621,0.015551222488284111
1701290238429726700,3.632726806640625,-0.08271884173154831,-0.10594792664051056,0.01861434429883957
1701290238439803000,3.642802978515625,-0.07802741974592209,-0.1201779916882515,0.0356266163289547
1701290238449878000,3.6528779296875,-0.06767294555902481,-0.12194240838289261,0.05707626789808273
1701290238459954000,3.662953857421875,-0.061624906957149506,-0.11147937923669815,0.07843615114688873
1701290238470028800,3.67302880859375,-0.0531071238219738,-0.08775337785482407,0.08905048668384552
1701290238480105000,3.68310498046875,-0.047349635511636734,-0.0665397047996521,0.09516163915395737
1701290238490180000,3.69318017578125,-0.03886013850569725,-0.052950672805309296,0.0960550457239151
1701290238500256000,3.703256103515625,-0.03848916292190552,-0.046817414462566376,0.0999472588300705
1701290238510331000,3.713330810546875,-0.03590211644768715,-0.05137651786208153,0.11470971256494522
1701290238520407000,3.723406982421875,-0.03366506099700928,-0.06350375711917877,0.12366964668035507
1701290238530482200,3.733482177734375,-0.03555463254451752,-0.07182925939559937,0.13509821891784668
1701290238540557800,3.743557861328125,-0.041316382586956024,-0.07653719186782837,0.14471542835235596
1701290238550633000,3.753633056640625,-0.04329720884561539,-0.08497052639722824,0.16051042079925537
1701290238560709000,3.763709228515625,-0.040759485214948654,-0.08681556582450867,0.17576155066490173
1701290238570783700,3.77378369140625,-0.0347561314702034,-0.07976066321134567,0.19087909162044525
1701290238580860000,3.78385986328125,-0.024855297058820724,-0.07161565124988556,0.19818760454654694
1701290238590936000,3.79393603515625,-0.019798997789621353,-0.06577227264642715,0.19194218516349792
1701290238601011000,3.804010986328125,-0.014535793103277683,-0.07791602611541748,0.1879224181175232
1701290238611086800,3.8140869140625,-0.0035399117041379213,-0.10591516643762589,0.19273191690444946
1701290238621162000,3.824161865234375,0.011462473310530186,-0.14633315801620483,0.20423783361911774
1701290238631238000,3.83423779296875,0.02523636631667614,-0.18689963221549988,0.214339941740036
1701290238641312800,3.844312744140625,0.03696679323911667,-0.22209197282791138,0.22978681325912476
1701290238651389000,3.854388916015625,0.05657114088535309,-0.2504875361919403,0.24483522772789001
1701290238661464000,3.864464111328125,0.08364110440015793,-0.25728070735931396,0.26969876885414124
1701290238671540000,3.8745400390625,0.11147023737430573,-0.24702903628349304,0.2915336489677429
1701290238681614800,3.88461474609375,0.14585350453853607,-0.2285616099834442,0.3209594488143921
1701290238691691000,3.89469091796875,0.18215905129909515,-0.20917782187461853,0.35593029856681824
1701290238701766000,3.904765869140625,0.21748216450214386,-0.20040351152420044,0.4040203094482422
1701290238711842000,3.914842041015625,0.2495061606168747,-0.20142927765846252,0.48031380772590637
1701290238721918000,3.92491796875,0.27927470207214355,-0.21233998239040375,0.5799573063850403
1701290238731992800,3.934992919921875,0.3110060691833496,-0.21977394819259644,0.6825316548347473
1701290238742069000,3.945069091796875,0.34220021963119507,-0.2035830020904541,0.7574940323829651
1701290238752144000,3.955143798828125,0.37327566742897034,-0.1946479082107544,0.8126561045646667
1701290238762220000,3.965219970703125,0.40735721588134766,-0.21400029957294464,0.8386533856391907
1701290238772295000,3.975294921875,0.4464477598667145,-0.2547418773174286,0.869752049446106
1701290238782371000,3.98537109375,0.4756178855895996,-0.2850148379802704,0.8923303484916687
1701290238792446000,3.995446044921875,0.48958882689476013,-0.29395586252212524,0.8747037053108215
1701290238802521900,4.00552197265625,0.5105599164962769,-0.262367308139801,0.8261598348617554
1701290238812597000,4.015596923828125,0.558711051940918,-0.18866345286369324,0.7578716278076172
1701290238822673000,4.0256728515625,0.6255372166633606,-0.10195759683847427,0.669127881526947
1701290238832748000,4.035748046875,0.6895495057106018,0.010801387950778008,0.5406163334846497
1701290238842824000,4.045823974609375,0.733549177646637,0.15603819489479065,0.3972679674625397
1701290238852898800,4.05589892578125,0.7681121230125427,0.30266502499580383,0.3001704514026642
1701290238862975000,4.06597509765625,0.7943045496940613,0.32259103655815125,0.26586493849754333
1701290238873051000,4.07605078125,0.8034790754318237,0.12329692393541336,0.2850065529346466
1701290238883126000,4.0861259765625,0.7550532221794128,-0.33025431632995605,0.3542487323284149
1701290238893202000,4.096201904296875,0.6200387477874756,-0.8679820895195007,0.39379867911338806
1701290238903276800,4.10627685546875,0.4287952780723572,-1.1587212085723877,0.36712178587913513
1701290238913353000,4.11635302734375,0.2822961211204529,-1.102192997932434,0.2586671710014343
1701290238923428000,4.126427978515625,0.23533077538013458,-0.8448821902275085,0.09194528311491013
1701290238933503700,4.136503662109375,0.2641160190105438,-0.6142175197601318,-0.07057829201221466
1701290238943579000,4.146578857421875,0.3028565049171448,-0.48956671357154846,-0.17293713986873627
1701290238953655000,4.156655029296875,0.31384485960006714,-0.4541766047477722,-0.22414250671863556
1701290238963730000,4.16672998046875,0.28692108392715454,-0.4900299310684204,-0.23963837325572968
1701290238973805800,4.176805908203125,0.2542964220046997,-0.5292797088623047,-0.23234546184539795
1701290238983881000,4.186880859375,0.2229161113500595,-0.5500936508178711,-0.22194261848926544
1701290238993957000,4.19695703125,0.19426396489143372,-0.5334201455116272,-0.21877479553222656
1701290239004032800,4.20703271484375,0.1655532270669937,-0.5031365156173706,-0.22395357489585876
1701290239014108000,4.21710791015625,0.14197495579719543,-0.4863230884075165,-0.23608368635177612
1701290239024184000,4.22718408203125,0.1197064146399498,-0.4866618514060974,-0.23997429013252258
1701290239034259000,4.237259033203125,0.09721150994300842,-0.5037171244621277,-0.23816551268100739
1701290239044334800,4.2473349609375,0.07985568791627884,-0.5204867720603943,-0.22677117586135864
1701290239054410000,4.257409912109375,0.06283218413591385,-0.532541811466217,-0.19864316284656525
1701290239064486100,4.267486083984375,0.0432925708591938,-0.5254098773002625,-0.14772404730319977
1701290239074560800,4.277560791015625,0.015044045634567738,-0.514488160610199,-0.09768550843000412
1701290239084637000,4.287636962890625,-0.013499715365469456,-0.495400995016098,-0.06300342828035355
1701290239094712000,4.297712158203125,-0.032318826764822006,-0.47351130843162537,-0.051832035183906555
1701290239104788000,4.3077880859375,-0.0465017594397068,-0.444700688123703,-0.05168715864419937
1701290239114862800,4.31786279296875,-0.05319729819893837,-0.3920976519584656,-0.04721854254603386
1701290239124939000,4.32793896484375,-0.04725392162799835,-0.3101503252983093,-0.036777887493371964
1701290239135014100,4.33801416015625,-0.026123421266674995,-0.19823713600635529,-0.02666177973151207
1701290239145089800,4.34808984375,0.013956086710095406,-0.08922117948532104,-0.01949494704604149
1701290239155166000,4.358166015625,0.04766920953989029,-0.003789825364947319,-0.013237073086202145
1701290239165241000,4.368240966796875,0.056049644947052,0.033542633056640625,-0.01836152747273445
1701290239175317000,4.37831689453125,0.039109937846660614,0.03976086527109146,-0.02536875568330288
1701290239185391600,4.3883916015625,-0.0029672079253941774,0.03248697519302368,-0.02044670283794403
1701290239195467800,4.3984677734375,-0.05182843655347824,0.016203533858060837,-0.01341237872838974
1701290239205543000,4.40854296875,-0.07972158491611481,-0.007788885850459337,0.001008105929940939
1701290239215618600,4.41861865234375,-0.08574908971786499,-0.04100506752729416,0.004245768301188946
1701290239225693700,4.428693603515625,-0.06918928772211075,-0.09578336030244827,-0.021125635132193565
1701290239235769900,4.438769775390625,-0.04125344380736351,-0.15471985936164856,-0.07360874116420746
1701290239245844500,4.448844482421875,-0.026711519807577133,-0.23467940092086792,-0.15167959034442902
1701290239255920600,4.458920654296875,-0.02555093728005886,-0.2844921052455902,-0.21858878433704376
1701290239265995800,4.468995849609375,-0.021490415558218956,-0.3024474084377289,-0.262556254863739
1701290239276071700,4.47907177734375,0.00021485117031261325,-0.2947719991207123,-0.26306551694869995
1701290239286147600,4.489147705078125,0.02949710749089718,-0.27393248677253723,-0.23506103456020355
1701290239296222700,4.49922265625,0.05783824622631073,-0.254037082195282,-0.21921958029270172
1701290239306298600,4.509298583984375,0.07718770205974579,-0.261430561542511,-0.23160913586616516
1701290239316373500,4.51937353515625,0.0845271497964859,-0.2817099392414093,-0.24614451825618744
1701290239326449700,4.52944970703125,0.07573312520980835,-0.30389219522476196,-0.2710288166999817
1701290239336524800,4.53952490234375,0.06374859809875488,-0.30754584074020386,-0.2877083718776703
1701290239346600700,4.5496005859375,0.059487808495759964,-0.28867387771606445,-0.29997166991233826
1701290239356675600,4.559675537109375,0.05317271128296852,-0.2561120390892029,-0.3207612633705139
1701290239366751700,4.569751708984375,0.045132625848054886,-0.2194616049528122,-0.3452034890651703
1701290239376827000,4.579826904296875,-0.007784219458699226,-0.16993924975395203,-0.37831035256385803
1701290239386902800,4.58990283203125,-0.11681297421455383,-0.07345478981733322,-0.42886674404144287
1701290239396977700,4.599977783203125,-0.20207175612449646,0.09905620664358139,-0.46363329887390137
1701290239407053800,4.6100537109375,-0.2158418893814087,0.2284834384918213,-0.44969403743743896
1701290239417129700,4.620129638671875,-0.19849273562431335,0.2843741178512573,-0.4123741090297699
1701290239427204600,4.63020458984375,-0.2070838212966919,0.2957037389278412,-0.37631863355636597
1701290239437280800,4.64028076171875,-0.22555969655513763,0.26113465428352356,-0.35424256324768066
1701290239447355600,4.650355712890625,-0.24096448719501495,0.14778704941272736,-0.37134885787963867
1701290239457431800,4.660431884765625,-0.2469712793827057,0.012629234232008457,-0.4399581849575043
1701290239467506700,4.670506591796875,-0.22866763174533844,-0.10278631001710892,-0.497993528842926
1701290239477582600,4.68058251953125,-0.19777131080627441,-0.09091831743717194,-0.4622957706451416
1701290239487657700,4.69065771484375,-0.1629539430141449,0.014286933466792107,-0.3009883463382721
1701290239497733600,4.700733642578125,-0.11403313279151917,0.12403041124343872,-0.05156252160668373
1701290239507808800,4.710808837890625,-0.05276711285114288,0.1445588618516922,0.19022774696350098
1701290239517884700,4.720884765625,0.013566365465521812,0.14682258665561676,0.32738417387008667
1701290239527959600,4.73095947265625,0.0471339151263237,0.23795808851718903,0.31664738059043884
1701290239538035700,4.74103564453125,0.033200256526470184,0.38132351636886597,0.14657309651374817
1701290239548111600,4.751111572265625,-0.00475751468911767,0.4850853383541107,-0.10199117660522461
1701290239558186800,4.761186767578125,-0.027541736140847206,0.5678088665008545,-0.3262605667114258
1701290239568263000,4.771262939453125,-0.03811182454228401,0.6332547664642334,-0.4977998435497284
1701290239578337800,4.781337890625,-0.01966937445104122,0.6744047999382019,-0.5965524315834045
1701290239588413700,4.79141357421875,0.0030833417549729347,0.6932535767555237,-0.6141636371612549
1701290239598488800,4.80148876953125,0.0007873453432694077,0.6889141798019409,-0.5498145818710327
1701290239608564700,4.811564697265625,-0.03555921092629433,0.6376384496688843,-0.40336447954177856
1701290239618639600,4.8216396484375,-0.09686928242444992,0.5508626699447632,-0.22801753878593445
1701290239628715800,4.8317158203125,-0.1450008600950241,0.4458281397819519,-0.08436423540115356
1701290239638790700,4.841790771484375,-0.16184119880199432,0.3070959150791168,-0.037308864295482635
1701290239648866600,4.851866455078125,-0.13908235728740692,0.10906273126602173,-0.1256701499223709
1701290239658941700,4.861941650390625,-0.08951152116060257,-0.10588067770004272,-0.2991696894168854
1701290239669017900,4.872017822265625,-0.03160854056477547,-0.3355602025985718,-0.5052677392959595
1701290239679093500,4.882093505859375,-0.0031048026867210865,-0.5283347964286804,-0.7056969404220581
1701290239689168600,4.892168701171875,-0.006160513497889042,-0.5706700086593628,-0.8044714331626892
1701290239699244800,4.902244873046875,-0.0370977409183979,-0.5034878253936768,-0.8078826069831848
1701290239709319700,4.912319580078125,-0.06777815520763397,-0.3780398666858673,-0.7343785762786865
1701290239719395600,4.9223955078125,-0.09213940054178238,-0.2369057834148407,-0.6214389801025391
1701290239729470700,4.932470703125,-0.10665735602378845,-0.11615433543920517,-0.5122073292732239
1701290239739547000,4.942546875,-0.11606834828853607,0.006008611060678959,-0.43486788868904114
1701290239749621500,4.95262158203125,-0.11918531358242035,0.13406404852867126,-0.40039941668510437
1701290239759697700,4.96269775390625,-0.10809026658535004,0.22478832304477692,-0.4113020896911621
1701290239769772800,4.972772705078125,-0.08997118473052979,0.2560080289840698,-0.4567742347717285
1701290239779848700,4.9828486328125,-0.052939072251319885,0.22844982147216797,-0.5054268836975098
1701290239789923600,4.992923583984375,0.00047887791879475117,0.20852112770080566,-0.5078815221786499
1701290239799999700,5.002999755859375,0.06600748747587204,0.166941300034523,-0.4692544639110565
1701290239810075000,5.013074951171875,0.1212766021490097,0.1232372373342514,-0.4339097738265991
1701290239820150500,5.023150634765625,0.14171820878982544,0.1200900748372078,-0.41754069924354553
1701290239830226700,5.033226806640625,0.12812916934490204,0.1292540282011032,-0.40824973583221436
1701290239840301800,5.0433017578125,0.09523925930261612,0.1640889048576355,-0.4011947512626648
1701290239850377700,5.053377685546875,0.06716848164796829,0.1899988055229187,-0.3767903447151184
1701290239860452600,5.06345263671875,0.04170463979244232,0.19159655272960663,-0.34935253858566284
1701290239870528800,5.07352880859375,0.011605327017605305,0.1652802675962448,-0.334774374961853
1701290239880604000,5.08360400390625,-0.016651054844260216,0.12392178177833557,-0.33974015712738037
1701290239890679600,5.093679443359375,-0.037527844309806824,0.05804848670959473,-0.37354952096939087
1701290239900754700,5.103754638671875,-0.05227954313158989,-0.020760782063007355,-0.40254464745521545
1701290239910830800,5.113830810546875,-0.06416763365268707,-0.1180039718747139,-0.42177826166152954
1701290239920905500,5.123905517578125,-0.07687036693096161,-0.19906477630138397,-0.4271228313446045
1701290239930981600,5.133981689453125,-0.09102506935596466,-0.23114201426506042,-0.4432107210159302
1701290239941056800,5.144056884765625,-0.10624072700738907,-0.22343672811985016,-0.45225057005882263
1701290239951132700,5.154132568359375,-0.11546564847230911,-0.21434709429740906,-0.45377495884895325
1701290239961208600,5.16420849609375,-0.10705885291099548,-0.20670539140701294,-0.4470745325088501
1701290239971283700,5.17428369140625,-0.10237754881381989,-0.198015496134758,-0.441965788602829
1701290239981359600,5.184359619140625,-0.10095182061195374,-0.17636828124523163,-0.43444058299064636
1701290239991434800,5.194434814453125,-0.10935116559267044,-0.12396977841854095,-0.4319577217102051
1701290240001510700,5.2045107421875,-0.1170109435915947,-0.04478202015161514,-0.4089016616344452
1701290240011585800,5.214585693359375,-0.1211451068520546,0.012755596078932285,-0.37056830525398254
1701290240021661700,5.22466162109375,-0.11761859804391861,0.05718911066651344,-0.33234813809394836
1701290240031736600,5.234736572265625,-0.1114797443151474,0.09948223829269409,-0.29989591240882874
1701290240041812700,5.244812744140625,-0.12047918885946274,0.11353202909231186,-0.2815922796726227
1701290240051887900,5.254887939453125,-0.13149163126945496,0.11720079928636551,-0.2648538053035736
1701290240061963800,5.2649638671875,-0.1370454877614975,0.0826687291264534,-0.2635512351989746
1701290240072038700,5.27503857421875,-0.13859571516513824,0.05186367779970169,-0.26756516098976135
1701290240082114800,5.28511474609375,-0.13575249910354614,0.050781767815351486,-0.2701335549354553
1701290240092190700,5.295190673828125,-0.11901320517063141,0.06997756659984589,-0.26626771688461304
1701290240102265600,5.305265625,-0.10625150799751282,0.0888277068734169,-0.24897697567939758
1701290240112341800,5.315341796875,-0.0933719277381897,0.11265154927968979,-0.23770993947982788
1701290240122416600,5.325416748046875,-0.09414595365524292,0.14406658709049225,-0.22715888917446136
1701290240132492800,5.335492919921875,-0.09680778533220291,0.17010430991649628,-0.23147401213645935
1701290240142567700,5.345567626953125,-0.1021982878446579,0.19055232405662537,-0.2356322705745697
1701290240152643600,5.3556435546875,-0.09843604266643524,0.19343972206115723,-0.2335430234670639
1701290240162718700,5.36571875,-0.09286327660083771,0.17555996775627136,-0.21953849494457245
1701290240172794600,5.375794677734375,-0.08279572427272797,0.15600864589214325,-0.2042253166437149
1701290240182869800,5.385869873046875,-0.07646378874778748,0.17243951559066772,-0.19467619061470032
1701290240192946200,5.3959462890625,-0.07193774729967117,0.20872454345226288,-0.18771041929721832
1701290240203021300,5.406021240234375,-0.05477406829595566,0.2542267441749573,-0.16344749927520752
1701290240213097200,5.41609716796875,-0.03565763309597969,0.31100374460220337,-0.12047581374645233
1701290240223173000,5.426173095703125,-0.022404151037335396,0.391966313123703,-0.05438637360930443
1701290240233248300,5.436248291015625,-0.017328964546322823,0.46466368436813354,0.013169233687222004
1701290240243324200,5.44632421875,-0.019699741154909134,0.49063923954963684,0.06695491075515747
1701290240253399000,5.45639892578125,-0.021886728703975677,0.45703333616256714,0.08835820853710175
1701290240263475200,5.46647509765625,-0.02810877002775669,0.4246980845928192,0.09018440544605255
1701290240273550300,5.47655029296875,-0.030838508158922195,0.4384711682796478,0.0918014794588089
1701290240283626000,5.4866259765625,-0.03142169117927551,0.47843611240386963,0.09912705421447754
1701290240293701000,5.496701171875,-0.029078906401991844,0.5177132487297058,0.11016026139259338
1701290240303777300,5.50677734375,-0.034790296107530594,0.5120365023612976,0.11307158321142197
1701290240313852400,5.516852294921875,-0.05407611280679703,0.4702022969722748,0.09395354986190796
1701290240323928000,5.526927978515625,-0.08770917356014252,0.40934479236602783,0.07035980373620987
1701290240334003200,5.537003173828125,-0.11372799426317215,0.35821130871772766,0.0524391308426857
1701290240344079400,5.547079345703125,-0.13539116084575653,0.32051336765289307,0.032840240746736526
1701290240354155300,5.5571552734375,-0.15491558611392975,0.26893725991249084,0.008809208869934082
1701290240364230100,5.567230224609375,-0.17150478065013885,0.19769810140132904,-0.022639388218522072
1701290240374306300,5.577306396484375,-0.1970927119255066,0.1441565752029419,-0.06570003926753998
1701290240384381200,5.587381103515625,-0.22342316806316376,0.14592871069908142,-0.09955159574747086
1701290240394457000,5.59745703125,-0.2460469901561737,0.19097980856895447,-0.11223383247852325
1701290240404532200,5.6075322265625,-0.2574462294578552,0.24717901647090912,-0.10429348051548004
1701290240414608100,5.617608154296875,-0.25702622532844543,0.2796839773654938,-0.09149938821792603
1701290240424683000,5.62768310546875,-0.25987935066223145,0.2944624125957489,-0.09395643323659897
1701290240434759200,5.63775927734375,-0.26486530900001526,0.3076660931110382,-0.09307333081960678
1701290240444834300,5.647834228515625,-0.24424979090690613,0.29555270075798035,-0.07561071962118149
1701290240454910200,5.65791015625,-0.20297397673130035,0.2456434667110443,-0.05029577016830444
1701290240464985000,5.667985107421875,-0.15929968655109406,0.18972988426685333,-0.031839095056056976
1701290240475061200,5.678061279296875,-0.12185298651456833,0.15086637437343597,-0.0037488695234060287
1701290240485137200,5.68813720703125,-0.09444507956504822,0.15596801042556763,0.02412765473127365
1701290240495212000,5.6982119140625,-0.07187239080667496,0.20926877856254578,0.06965971738100052
1701290240505288200,5.7082880859375,-0.03451942652463913,0.27758899331092834,0.13370183110237122
1701290240515363300,5.71836328125,0.014870492741465569,0.34812065958976746,0.21349865198135376
1701290240525439200,5.728439208984375,0.07228989154100418,0.3931832015514374,0.2908403277397156
1701290240535514000,5.73851416015625,0.1263829469680786,0.3883095979690552,0.35410717129707336
1701290240545590300,5.74859033203125,0.1835421323776245,0.35196271538734436,0.4117894768714905
1701290240555665200,5.7586650390625,0.23195813596248627,0.2975955903530121,0.48197975754737854
1701290240565741300,5.7687412109375,0.2755270004272461,0.22931011021137238,0.5715898275375366
1701290240575816200,5.778816162109375,0.31741663813591003,0.17157810926437378,0.6712471842765808
1701290240585892000,5.78889208984375,0.35938721895217896,0.15499109029769897,0.7705107927322388
1701290240595967200,5.79896728515625,0.4045368432998657,0.17530594766139984,0.8717947602272034
1701290240606043100,5.809043212890625,0.44899800419807434,0.21382679045200348,0.9853782057762146
1701290240616119000,5.819119140625,0.5004889369010925,0.22952638566493988,1.1255768537521362
1701290240626194200,5.829194091796875,0.5545033812522888,0.21928536891937256,1.2883394956588745
1701290240636270300,5.839270263671875,0.589608371257782,0.21529968082904816,1.4475022554397583
1701290240646345200,5.84934521484375,0.6087536811828613,0.23130841553211212,1.5818591117858887
1701290240656421000,5.859421142578125,0.6197251081466675,0.26065486669540405,1.6855543851852417
1701290240666496300,5.869496337890625,0.6395434737205505,0.30360662937164307,1.7746050357818604
1701290240676572200,5.879572265625,0.6588923931121826,0.3472009599208832,1.8643993139266968
1701290240686647300,5.889647216796875,0.6582915782928467,0.36028987169265747,1.8957170248031616
1701290240696723200,5.89972314453125,0.6524491310119629,0.3395571708679199,1.7999346256256104
1701290240706798300,5.90979833984375,0.6315634250640869,0.24061404168605804,1.5874507427215576
1701290240716874200,5.919874267578125,0.6176412105560303,0.09649094939231873,1.324497938156128
1701290240726949000,5.92994921875,0.5940558910369873,0.024466276168823242,1.096063494682312
1701290240737025300,5.940025390625,0.5832333564758301,0.019659269601106644,0.9278172850608826
1701290240747101200,5.95010107421875,0.582034707069397,0.011146227829158306,0.8247981071472168
1701290240757176000,5.960176025390625,0.5892561674118042,-0.012155631557106972,0.7617253661155701
1701290240767252200,5.970252197265625,0.5899462103843689,-0.01292342133820057,0.7398922443389893
1701290240777327400,5.980327392578125,0.5593531131744385,0.021329622715711594,0.7474684119224548
1701290240787403000,5.990403076171875,0.5187177062034607,0.022180352360010147,0.7573989629745483
1701290240797478100,6.00047802734375,0.48731106519699097,-0.005419318564236164,0.7688657641410828
1701290240807554300,6.01055419921875,0.4526071548461914,-0.019163094460964203,0.7705219984054565
1701290240817629200,6.020629150390625,0.41140538454055786,-0.0773792639374733,0.7202420234680176
1701290240827705000,6.030705078125,0.35955387353897095,-0.16914740204811096,0.6151055693626404
1701290240837780200,6.0407802734375,0.3203108608722687,-0.27793753147125244,0.46315619349479675
1701290240847856400,6.0508564453125,0.3034740686416626,-0.3843836188316345,0.2967846691608429
1701290240857931300,6.06093115234375,0.2901257574558258,-0.4535578787326813,0.13522930443286896
1701290240868007200,6.071007080078125,0.26930350065231323,-0.4906136095523834,0.016470788046717644
1701290240878083300,6.081083251953125,0.24586957693099976,-0.5158771872520447,-0.05767454952001572
1701290240888158200,6.091158203125,0.22624024748802185,-0.5300305485725403,-0.09937387704849243
1701290240898234000,6.101234130859375,0.2033327966928482,-0.5323770642280579,-0.12235935777425766
1701290240908309200,6.111309326171875,0.18244054913520813,-0.5369165539741516,-0.14608407020568848
1701290240918385200,6.12138525390625,0.16134831309318542,-0.5560332536697388,-0.16626790165901184
1701290240928460000,6.1314599609375,0.13625319302082062,-0.5818087458610535,-0.19103848934173584
1701290240938536200,6.1415361328125,0.10704389959573746,-0.5919939875602722,-0.19614483416080475
1701290240948611300,6.151611328125,0.08057749271392822,-0.6021544337272644,-0.18673516809940338
1701290240958687200,6.161687255859375,0.06279636919498444,-0.6341041326522827,-0.16130678355693817
1701290240968762000,6.17176220703125,0.04713931679725647,-0.6864107251167297,-0.13381747901439667
1701290240978838300,6.18183837890625,0.022996697574853897,-0.7348285913467407,-0.10805565863847733
1701290240988913400,6.191913330078125,-0.010189060121774673,-0.7749042510986328,-0.07847125828266144
1701290240998989000,6.201989013671875,-0.03616473078727722,-0.795452892780304,-0.06458580493927002
1701290241009065200,6.212065185546875,-0.0495595782995224,-0.7804889678955078,-0.050192903727293015
1701290241019140400,6.222140380859375,-0.05556021258234978,-0.7221279144287109,-0.03513459116220474
1701290241029216300,6.23221630859375,-0.057863179594278336,-0.6263150572776794,-0.015272284857928753
1701290241039291100,6.242291015625,-0.0526612289249897,-0.5160303711891174,0.012231776490807533
1701290241049367300,6.2523671875,-0.049779050052165985,-0.4108947217464447,0.03717629984021187
1701290241059442200,6.262442138671875,-0.04361516237258911,-0.32220906019210815,0.06928976625204086
1701290241069518000,6.27251806640625,-0.03293439373373985,-0.24869057536125183,0.09244858473539352
1701290241079593200,6.28259326171875,-0.02406739816069603,-0.18242686986923218,0.10920120030641556
1701290241089669000,6.292669189453125,-0.023170214146375656,-0.11746922880411148,0.1073344275355339
1701290241099744000,6.302743896484375,-0.027421951293945312,-0.07242505997419357,0.09040151536464691
1701290241109820200,6.312820068359375,-0.03097824938595295,-0.045850686728954315,0.06685668230056763
1701290241119895300,6.322895263671875,-0.0437995046377182,-0.03388963267207146,0.04608136788010597
1701290241129971200,6.33297119140625,-0.05944374203681946,-0.035136885941028595,0.01937752589583397
1701290241140047400,6.34304736328125,-0.0738983154296875,-0.032915543764829636,-0.004407166037708521
1701290241150122200,6.353122314453125,-0.08323687314987183,-0.04180751368403435,-0.02394590899348259
1701290241160198100,6.3631982421875,-0.09002766758203506,-0.057737745344638824,-0.04006496071815491
1701290241170273300,6.373273193359375,-0.09224405884742737,-0.08848834782838821,-0.055878933519124985
1701290241180349200,6.38334912109375,-0.09327204525470734,-0.12987548112869263,-0.07845854759216309
1701290241190423300,6.39342333984375,-0.09121420979499817,-0.19876696169376373,-0.10361067205667496
1701290241200499200,6.403499267578125,-0.09043470025062561,-0.2762817442417145,-0.13863523304462433
1701290241210574000,6.413573974609375,-0.09277413040399551,-0.34060946106910706,-0.16405603289604187
1701290241220650200,6.423650146484375,-0.08224905282258987,-0.4009878635406494,-0.18545959889888763
1701290241230725400,6.433725341796875,-0.05828705057501793,-0.4401753842830658,-0.19959789514541626
1701290241240801300,6.44380126953125,-0.01713641919195652,-0.45160940289497375,-0.18293237686157227
1701290241250876200,6.453876220703125,0.025134315714240074,-0.4467434287071228,-0.14881855249404907
1701290241260952300,6.463952392578125,0.07623105496168137,-0.4251915216445923,-0.10210245102643967
1701290241271028200,6.4740283203125,0.1204666867852211,-0.36558249592781067,-0.08360529690980911
1701290241281103000,6.48410302734375,0.14547190070152283,-0.2950795590877533,-0.08800617605447769
1701290241291179300,6.49417919921875,0.14483186602592468,-0.22559267282485962,-0.09164758771657944
1701290241301254400,6.50425439453125,0.1386014074087143,-0.17559875547885895,-0.09087607264518738
1701290241311330300,6.514330322265625,0.12413780391216278,-0.13470183312892914,-0.08791351318359375
1701290241321405200,6.5244052734375,0.10339231044054031,-0.09837284684181213,-0.09566330909729004
1701290241331481300,6.5344814453125,0.07945592701435089,-0.06680012494325638,-0.10393309593200684
1701290241341556200,6.54455615234375,0.046328067779541016,-0.026389047503471375,-0.11416895687580109
1701290241351632400,6.55463232421875,0.01521061360836029,0.00023891404271125793,-0.11367462575435638
1701290241361707300,6.564707275390625,-0.013580288738012314,0.009923232719302177,-0.11356250196695328
1701290241371783200,6.574783203125,-0.034990761429071426,0.007853382267057896,-0.13272197544574738
1701290241381859300,6.584859375,-0.06305702030658722,-0.0027459985576570034,-0.1811145395040512
1701290241391934200,6.594934326171875,-0.08090366423130035,-0.02554105967283249,-0.23559509217739105
1701290241402010000,6.605010009765625,-0.09205857664346695,-0.05118250846862793,-0.2882545590400696
1701290241412085200,6.615085205078125,-0.1018701121211052,-0.06162310391664505,-0.34005990624427795
1701290241422161400,6.625161376953125,-0.1314288079738617,-0.04824817553162575,-0.40806081891059875
1701290241432236300,6.635236328125,-0.1883925199508667,-0.023195024579763412,-0.47758838534355164
1701290241442312200,6.645312255859375,-0.2527187764644623,-0.010647808201611042,-0.5230025053024292
1701290241452387300,6.65538720703125,-0.29836130142211914,-0.06547774374485016,-0.5061333179473877
1701290241462463200,6.665463134765625,-0.30261969566345215,-0.18974456191062927,-0.43110087513923645
1701290241472538000,6.6755380859375,-0.26410961151123047,-0.30575528740882874,-0.33287668228149414
1701290241482614300,6.6856142578125,-0.20374929904937744,-0.32270339131355286,-0.25438639521598816
1701290241492689200,6.695689208984375,-0.1486886888742447,-0.2605924904346466,-0.2254871428012848
1701290241502765000,6.70576513671875,-0.10683179646730423,-0.1842566877603531,-0.2409593015909195
1701290241512840200,6.715840087890625,-0.0752519741654396,-0.11233756691217422,-0.2956607937812805
1701290241522916400,6.725916259765625,-0.06589841842651367,-0.02103588543832302,-0.3400128185749054
1701290241532992000,6.735991943359375,-0.07135289907455444,0.1130298525094986,-0.34212642908096313
1701290241543067100,6.746067138671875,-0.08760537207126617,0.24841482937335968,-0.2938523590564728
1701290241553143300,6.756143310546875,-0.1106056496500969,0.344320148229599,-0.20111311972141266
1701290241563218400,6.766218505859375,-0.12290758639574051,0.3958216905593872,-0.07924768328666687
1701290241573294000,6.776294189453125,-0.11521449685096741,0.40480953454971313,0.04141893610358238
1701290241583369200,6.786369140625,-0.11339635401964188,0.38039499521255493,0.08907940238714218
1701290241593445400,6.7964453125,-0.14799678325653076,0.3492259979248047,0.03585493192076683
1701290241603520300,6.806520263671875,-0.2033979892730713,0.30148646235466003,-0.06305620819330215
1701290241613596200,6.81659619140625,-0.2513526380062103,0.23549066483974457,-0.14604119956493378
1701290241623671300,6.82667138671875,-0.26774972677230835,0.15982626378536224,-0.2221202552318573
1701290241633747500,6.83674755859375,-0.2578060030937195,0.08705349266529083,-0.28794631361961365
1701290241643823000,6.846822998046875,-0.23079784214496613,0.043791770935058594,-0.3562585115432739
1701290241653898200,6.856898193359375,-0.2037515491247177,0.03151180222630501,-0.40983521938323975
1701290241663974400,6.866974365234375,-0.18294773995876312,0.0431964211165905,-0.4095100462436676
1701290241674049000,6.877049072265625,-0.16060569882392883,0.05220690369606018,-0.3591754138469696
1701290241684125200,6.887125244140625,-0.13396397233009338,0.09634506702423096,-0.2916805148124695
1701290241694200300,6.897200439453125,-0.11222860962152481,0.18754169344902039,-0.25564417243003845
1701290241704276200,6.907276123046875,-0.10187796503305435,0.32627612352371216,-0.28849664330482483
1701290241714351000,6.91735107421875,-0.10431534796953201,0.479442834854126,-0.35181760787963867
1701290241724427300,6.92742724609375,-0.10904112458229065,0.5915568470954895,-0.3948095440864563
1701290241734502400,6.93750244140625,-0.12138798832893372,0.634842574596405,-0.417162150144577
1701290241744578000,6.947578125,-0.13767535984516144,0.6151130795478821,-0.4162479043006897
1701290241754653200,6.957653076171875,-0.16033919155597687,0.5533718466758728,-0.4061265289783478
1701290241764729300,6.967729248046875,-0.19566576182842255,0.48368939757347107,-0.39968565106391907
1701290241774805200,6.97780517578125,-0.2492464780807495,0.40558624267578125,-0.4098570644855499
1701290241784880000,6.987880126953125,-0.29159873723983765,0.34036198258399963,-0.403729647397995
1701290241794956300,6.997956298828125,-0.3123020529747009,0.29301130771636963,-0.3832266926765442
1701290241805031400,7.008031494140625,-0.3163633942604065,0.26600125432014465,-0.33999159932136536
1701290241815107300,7.018107421875,-0.30326056480407715,0.24921821057796478,-0.28597378730773926
1701290241825182200,7.02818212890625,-0.2776375114917755,0.24978332221508026,-0.26427674293518066
1701290241835258400,7.03825830078125,-0.24311459064483643,0.24660423398017883,-0.2896452248096466
1701290241845333200,7.048333251953125,-0.205507293343544,0.20019571483135223,-0.3397046625614166
1701290241855409200,7.0584091796875,-0.17839786410331726,0.0938013345003128,-0.40352222323417664
1701290241865484300,7.068484375,-0.15491996705532074,-0.07450404763221741,-0.4774499833583832
1701290241875560200,7.078560302734375,-0.12530188262462616,-0.2468385398387909,-0.540259599685669
1701290241885635000,7.088635009765625,-0.08601120859384537,-0.3530784249305725,-0.5901696085929871
1701290241895711200,7.098711181640625,-0.057204753160476685,-0.40519607067108154,-0.6025859117507935
1701290241905787100,7.108787109375,-0.04232380539178848,-0.4266715347766876,-0.6015992164611816
1701290241915862300,7.1188623046875,-0.03783828392624855,-0.4186421036720276,-0.5787199139595032
1701290241925938200,7.128938232421875,-0.05091041326522827,-0.36578795313835144,-0.5556750297546387
1701290241936013300,7.139013427734375,-0.057422883808612823,-0.26693180203437805,-0.5445460081100464
1701290241946089200,7.149089111328125,-0.06729628890752792,-0.15303373336791992,-0.546215832233429
1701290241956164000,7.1591640625,-0.07651636749505997,-0.03649703785777092,-0.5601401925086975
1701290241966240300,7.169240234375,-0.07908286154270172,0.02656741440296173,-0.5963671803474426
1701290241976315100,7.179315185546875,-0.07562068104743958,0.05565834417939186,-0.6341241598129272
1701290241986391300,7.189391357421875,-0.08603497594594955,0.08479838818311691,-0.6468124985694885
1701290241996466200,7.199466064453125,-0.10098210722208023,0.12095907330513,-0.6205317974090576
1701290242006542000,7.2095419921875,-0.11183155328035355,0.12082564830780029,-0.57904452085495
1701290242016617200,7.2196171875,-0.11223103106021881,0.08593663573265076,-0.5366352796554565
1701290242026693400,7.229693359375,-0.1040002629160881,0.03052717261016369,-0.503266453742981
1701290242036769000,7.23976904296875,-0.09527160227298737,-0.019883647561073303,-0.4828873872756958
1701290242046844200,7.24984423828125,-0.09746897220611572,-0.061297401785850525,-0.4682708978652954
1701290242056920300,7.25992041015625,-0.10287422686815262,-0.04861189052462578,-0.45613032579421997
1701290242066995200,7.2699951171875,-0.09839265793561935,-0.00915529578924179,-0.43205776810646057
1701290242077071000,7.280071044921875,-0.09260141849517822,0.03112199157476425,-0.4040199816226959
1701290242087146200,7.290146240234375,-0.08288221806287766,0.04776621609926224,-0.3717946708202362
1701290242097222400,7.300222412109375,-0.07889203727245331,0.006906875409185886,-0.346137136220932
1701290242107297300,7.31029736328125,-0.08507350087165833,-0.06816550344228745,-0.335752934217453
1701290242117373200,7.320373291015625,-0.09697514772415161,-0.1421477198600769,-0.3342655897140503
1701290242127448300,7.3304482421875,-0.10960332304239273,-0.1585107147693634,-0.3285749554634094
1701290242137524200,7.340524169921875,-0.11590386182069778,-0.10696239024400711,-0.3074609339237213
1701290242147599000,7.35059912109375,-0.10399767011404037,-0.018410425633192062,-0.2684514820575714
1701290242157675300,7.36067529296875,-0.08634022623300552,0.047077979892492294,-0.22973284125328064
1701290242167751400,7.37075146484375,-0.07150748372077942,0.07448562979698181,-0.2109716683626175
1701290242177826000,7.380825927734375,-0.06882675737142563,0.08228687196969986,-0.21750690042972565
1701290242187903500,7.390903564453125,-0.07807911187410355,0.09427934885025024,-0.23974855244159698
1701290242197978400,7.400978271484375,-0.09271321445703506,0.1075255498290062,-0.25053203105926514
1701290242208054300,7.41105419921875,-0.11212685704231262,0.08584874868392944,-0.24527813494205475
1701290242218129400,7.42112939453125,-0.1259923130273819,0.024856295436620712,-0.23226870596408844
1701290242228205300,7.431205322265625,-0.12525354325771332,-0.036257658153772354,-0.22361555695533752
1701290242238280200,7.4412802734375,-0.12424970418214798,-0.07546629011631012,-0.23299956321716309
1701290242248356400,7.4513564453125,-0.11509749293327332,-0.08423475176095963,-0.24375766515731812
1701290242258431500,7.461431396484375,-0.11027008295059204,-0.060851067304611206,-0.2502172887325287
1701290242268507100,7.471507080078125,-0.11271166801452637,-0.019641317427158356,-0.2440243810415268
1701290242278583300,7.481583251953125,-0.10738271474838257,0.02447044476866722,-0.23873086273670197
1701290242288658400,7.491658447265625,-0.1069432944059372,0.057712018489837646,-0.23349376022815704
1701290242298734300,7.501734375,-0.10880223661661148,0.06976662576198578,-0.22335149347782135
1701290242308809200,7.511809326171875,-0.11275410652160645,0.08196470141410828,-0.21498943865299225
1701290242318885400,7.521885498046875,-0.12034880369901657,0.08082905411720276,-0.20938745141029358
1701290242328960500,7.53196044921875,-0.1374572068452835,0.05724836140871048,-0.21599341928958893
1701290242339036200,7.5420361328125,-0.15473592281341553,0.033927805721759796,-0.22768521308898926
1701290242349111300,7.552111328125,-0.16842271387577057,0.04344940185546875,-0.2456919103860855
1701290242359187500,7.5621875,-0.17491288483142853,0.09170409291982651,-0.24671760201454163
1701290242369262300,7.572262451171875,-0.18085706233978271,0.13446807861328125,-0.22409272193908691
1701290242379338200,7.582338134765625,-0.18987807631492615,0.15758025646209717,-0.20245568454265594
1701290242389413400,7.592413330078125,-0.2012028992176056,0.17949940264225006,-0.18660986423492432
1701290242399489300,7.6024892578125,-0.21027900278568268,0.21922926604747772,-0.19398629665374756
1701290242409565200,7.612565185546875,-0.2232763022184372,0.2635458707809448,-0.20560966432094574
1701290242419640300,7.622640380859375,-0.2283763736486435,0.27893978357315063,-0.21271437406539917
1701290242429716200,7.63271630859375,-0.23031356930732727,0.24049490690231323,-0.2166886031627655
1701290242439791000,7.642791015625,-0.2417936474084854,0.256240576505661,-0.22313106060028076
1701290242449867300,7.6528671875,-0.2530079782009125,0.29121828079223633,-0.2176278978586197
1701290242459942400,7.6629423828125,-0.2651295065879822,0.35293418169021606,-0.20250491797924042
1701290242470018300,7.673018310546875,-0.27138447761535645,0.4391023814678192,-0.16119742393493652
1701290242480093200,7.68309326171875,-0.2772674858570099,0.5059418678283691,-0.10677056759595871
1701290242490169300,7.69316943359375,-0.27032914757728577,0.5569507479667664,-0.04232952743768692
1701290242500244500,7.703244384765625,-0.2537024915218353,0.6164636015892029,0.028696609660983086
1701290242510320400,7.7133203125,-0.22396163642406464,0.6915886998176575,0.09410969913005829
1701290242520395300,7.723395263671875,-0.19106987118721008,0.7518008947372437,0.14966103434562683
1701290242530471400,7.733471435546875,-0.172188863158226,0.7430012822151184,0.2065991461277008
1701290242540547300,7.74354736328125,-0.1350114792585373,0.6838785409927368,0.24325153231620789
1701290242550622200,7.753622314453125,-0.08163187652826309,0.5665212869644165,0.2643403112888336
1701290242560698400,7.763698486328125,-0.02438138984143734,0.4199865758419037,0.2661550045013428
1701290242570773200,7.773773193359375,0.010526258498430252,0.30658626556396484,0.25822705030441284
1701290242580849400,7.783849365234375,0.02458961494266987,0.27538758516311646,0.24674378335475922
1701290242590924300,7.79392431640625,0.07648221403360367,0.2910284996032715,0.2550590932369232
1701290242601000200,7.804000244140625,0.1899271458387375,0.3088972568511963,0.3123818337917328
1701290242611075300,7.814075439453125,0.3062652051448822,0.33627668023109436,0.42399704456329346
1701290242621151200,7.824151123046875,0.4034166634082794,0.34593909978866577,0.5617581605911255
1701290242631226400,7.834226318359375,0.47143620252609253,0.23163090646266937,0.7052125334739685
1701290242641302300,7.84430224609375,0.5436334609985352,0.037990473210811615,0.8206067085266113
1701290242651377400,7.85437744140625,0.6273760199546814,-0.13891719281673431,0.9082569479942322
1701290242661453300,7.864453369140625,0.7097142338752747,-0.2590385973453522,1.0032602548599243
1701290242671529200,7.874529296875,0.7544497847557068,-0.3025195002555847,1.1456456184387207
1701290242681604400,7.884604248046875,0.7567906975746155,-0.2865828573703766,1.3321388959884644
1701290242691680500,7.894680419921875,0.7520156502723694,-0.2309989631175995,1.5205421447753906
1701290242701755400,7.90475537109375,0.7497669458389282,-0.11991260945796967,1.6988422870635986
1701290242711831300,7.914831298828125,0.7694828510284424,0.02839164435863495,1.8559869527816772
1701290242721906400,7.924906494140625,0.8181631565093994,0.1834031343460083,1.9835516214370728
1701290242731982300,7.934982421875,0.8832162022590637,0.26957640051841736,2.024669885635376
1701290242742057200,7.94505712890625,0.9319943785667419,0.25089892745018005,1.9236019849777222
1701290242752133400,7.95513330078125,0.9558946490287781,0.21014325320720673,1.6964524984359741
1701290242762208300,7.965208251953125,0.9289156198501587,0.20448410511016846,1.4381399154663086
1701290242772284200,7.9752841796875,0.875084638595581,0.20413683354854584,1.2171686887741089
1701290242782360300,7.9853603515625,0.819807767868042,0.2796935737133026,1.085012435913086
1701290242792435500,7.995435546875,0.7736093997955322,0.2780272364616394,1.0049042701721191
1701290242802511000,8.005510986328124,0.7547471523284912,0.23412162065505981,0.9641819000244141
1701290242812586200,8.015586181640625,0.7288540005683899,0.22469349205493927,0.9547250270843506
1701290242822662400,8.025662353515624,0.6856992244720459,0.2421835958957672,0.9698117971420288
1701290242832737300,8.0357373046875,0.6415397524833679,0.17167294025421143,0.9999334812164307
1701290242842813200,8.045813232421875,0.6274784207344055,-0.011336175724864006,1.0167388916015625
1701290242852888300,8.055888427734375,0.6194103956222534,-0.17166751623153687,1.007373332977295
1701290242862964500,8.065964599609375,0.5976856350898743,-0.24897587299346924,0.917162299156189
1701290242873039400,8.076039306640626,0.540626049041748,-0.33412617444992065,0.7136507034301758
1701290242883115300,8.086115234375,0.5170546174049377,-0.46422845125198364,0.4717499315738678
1701290242893190400,8.0961904296875,0.521826446056366,-0.6199136972427368,0.2528548538684845
1701290242903266300,8.106266357421875,0.5364139080047607,-0.737924337387085,0.11148703843355179
1701290242913342200,8.11634228515625,0.5381138324737549,-0.7997205853462219,0.05121970176696777
1701290242923417300,8.126417236328125,0.5208884477615356,-0.8517467379570007,0.039687659591436386
1701290242933493200,8.1364931640625,0.49501341581344604,-0.8928003907203674,0.05119863897562027
1701290242943568100,8.146568115234375,0.4715975224971771,-0.9012126922607422,0.05946630984544754
1701290242953644300,8.156644287109375,0.43960630893707275,-0.9098435044288635,0.0720052644610405
1701290242963719400,8.166719482421875,0.40215951204299927,-0.9386248588562012,0.07759304344654083
1701290242973795300,8.17679541015625,0.36242276430130005,-0.9717748165130615,0.08788589388132095
1701290242983870200,8.1868701171875,0.31885474920272827,-0.9943979978561401,0.0950210839509964
1701290242993946400,8.1969462890625,0.2678493559360504,-1.0040340423583984,0.10195249319076538
1701290243004021500,8.207021484375,0.22178472578525543,-0.9970064163208008,0.1114913672208786
1701290243014097200,8.21709716796875,0.1859247237443924,-0.9886918067932129,0.11201281100511551
1701290243024173300,8.22717333984375,0.1545926034450531,-0.974086582660675,0.1033172681927681
1701290243034248400,8.23724853515625,0.11928974837064743,-0.9157883524894714,0.09750092029571533
1701290243044324400,8.247324462890624,0.08532387018203735,-0.8051384687423706,0.10164646804332733
1701290243054399200,8.257399169921875,0.052182164043188095,-0.643481969833374,0.1057479977607727
1701290243064475400,8.267475341796874,0.009938505478203297,-0.43480345606803894,0.1173107922077179
1701290243074550300,8.27755029296875,-0.04192895442247391,-0.23247458040714264,0.12521958351135254
1701290243084626400,8.28762646484375,-0.09273088723421097,-0.07984692603349686,0.1240740492939949
1701290243094701300,8.297701416015625,-0.1475486010313034,0.014103001914918423,0.11158302426338196
1701290243104777200,8.307777099609375,-0.19800274074077606,0.06494075059890747,0.095651775598526
1701290243114852400,8.317852294921876,-0.23903751373291016,0.08996114879846573,0.06587390601634979
1701290243124928300,8.32792822265625,-0.2662152647972107,0.10404536873102188,0.03504272550344467
1701290243135003400,8.33800341796875,-0.2888646423816681,0.1072014793753624,-0.0038724499754607677
1701290243145079300,8.348079345703125,-0.3095420300960541,0.10958908498287201,-0.05215248465538025
1701290243155155500,8.358155517578124,-0.3312494456768036,0.09252967685461044,-0.09648586064577103
1701290243165230300,8.368230224609375,-0.3564089834690094,0.07024338841438293,-0.12869612872600555
1701290243175306200,8.37830615234375,-0.37751853466033936,0.025250084698200226,-0.15981489419937134
1701290243185381400,8.38838134765625,-0.38131487369537354,-0.04819461330771446,-0.1869308203458786
1701290243195456800,8.398456787109374,-0.3687357008457184,-0.1081029549241066,-0.2143632471561432
1701290243205532000,8.408531982421875,-0.3344910144805908,-0.16440987586975098,-0.24424144625663757
1701290243215607600,8.418607666015625,-0.27978622913360596,-0.22320954501628876,-0.2721388339996338
1701290243225682700,8.4286826171875,-0.22753389179706573,-0.2925354838371277,-0.288841187953949
1701290243235758800,8.4387587890625,-0.17585977911949158,-0.35039106011390686,-0.30175644159317017
1701290243245833700,8.448833740234376,-0.12529084086418152,-0.3901514708995819,-0.3162146806716919
1701290243255909600,8.45890966796875,-0.06477370113134384,-0.40200868248939514,-0.3319193422794342
1701290243265985800,8.46898583984375,-0.0021859342232346535,-0.4002114236354828,-0.3440418541431427
1701290243276061000,8.47906103515625,0.0614047609269619,-0.402324914932251,-0.3440205454826355
1701290243286136600,8.489136474609374,0.10945720225572586,-0.43931037187576294,-0.32665953040122986
1701290243296211700,8.499211669921875,0.15579861402511597,-0.46959954500198364,-0.2936360836029053
1701290243306287900,8.509287841796874,0.1979820281267166,-0.4341714680194855,-0.22734291851520538
1701290243316362500,8.519362548828125,0.2257143259048462,-0.33929556608200073,-0.14391887187957764
1701290243326438700,8.529438720703125,0.2280600517988205,-0.2281508892774582,-0.08001668006181717
1701290243336513800,8.539513671875,0.18944181501865387,-0.09038770198822021,-0.03977285698056221
1701290243346589700,8.549589599609375,0.1304716318845749,0.05246540158987045,-0.043649472296237946
1701290243356664600,8.55966455078125,0.05131743475794792,0.15196456015110016,-0.0959497019648552
1701290243366740700,8.56974072265625,-0.048149894922971725,0.21458478271961212,-0.1849089413881302
1701290243376816600,8.579816650390624,-0.18312768638134003,0.2980237603187561,-0.2898750603199005
1701290243386891800,8.589891845703125,-0.30822640657424927,0.3817135989665985,-0.3831004202365875
1701290243396967700,8.5999677734375,-0.37431061267852783,0.41373491287231445,-0.412801593542099
1701290243407042800,8.610042724609375,-0.3771093487739563,0.3671441972255707,-0.3714388608932495
1701290243417118700,8.62011865234375,-0.34501373767852783,0.22409994900226593,-0.3066883385181427
1701290243427193600,8.630193603515625,-0.29926449060440063,0.042978573590517044,-0.26278719305992126
1701290243437269800,8.640269775390625,-0.2790910303592682,-0.11328800022602081,-0.28175073862075806
1701290243447345000,8.650344970703125,-0.2853236198425293,-0.22071830928325653,-0.3555663824081421
1701290243457420800,8.6604208984375,-0.30318039655685425,-0.3208784759044647,-0.41214656829833984
1701290243467495700,8.67049560546875,-0.3074970245361328,-0.37426960468292236,-0.406826376914978
1701290243477571800,8.68057177734375,-0.2928653359413147,-0.21300028264522552,-0.33804836869239807
1701290243487646700,8.690646728515626,-0.2522740960121155,0.1877179592847824,-0.22879603505134583
1701290243497722600,8.70072265625,-0.19979621469974518,0.6731877326965332,-0.12312579900026321
1701290243507798800,8.710798828125,-0.1619752049446106,1.0678192377090454,-0.050712402909994125
1701290243517873700,8.720873779296875,-0.16974897682666779,1.2886698246002197,0.000044516316847875714
1701290243527949800,8.73094970703125,-0.21390706300735474,1.3118762969970703,0.048899151384830475
1701290243538024700,8.741024658203125,-0.279496967792511,1.2105478048324585,0.1063094437122345
1701290243548100600,8.7511005859375,-0.34246668219566345,1.0365527868270874,0.13814528286457062
1701290243558175700,8.76117578125,-0.3684050738811493,0.8060909509658813,0.08269774168729782
1701290243568252000,8.771251953125,-0.3555140495300293,0.5381054282188416,-0.07613269984722137
1701290243578326800,8.781326904296876,-0.32478275895118713,0.2876279354095459,-0.3042425513267517
1701290243588402700,8.791402587890625,-0.28575706481933594,0.09467694163322449,-0.5465543866157532
1701290243598477800,8.801477783203126,-0.2335577756166458,-0.02048639953136444,-0.720963180065155
1701290243608553700,8.8115537109375,-0.1965836137533188,-0.11668791621923447,-0.7927578687667847
1701290243618629600,8.821629638671874,-0.16006049513816833,-0.19472412765026093,-0.7521127462387085
1701290243628704800,8.831704833984375,-0.10794194042682648,-0.25512152910232544,-0.6174599528312683
1701290243638781000,8.841781005859374,-0.04567722603678703,-0.2629951536655426,-0.45793601870536804
1701290243648855800,8.851855712890625,0.0053212400525808334,-0.20011259615421295,-0.3732309937477112
1701290243658931700,8.861931640625,0.024345532059669495,-0.07452192157506943,-0.39338579773902893
1701290243669006800,8.8720068359375,0.02434057928621769,0.05083455890417099,-0.5065383315086365
1701290243679082800,8.882082763671875,0.047850966453552246,0.053805045783519745,-0.6637353897094727
1701290243689157600,8.89215771484375,0.07636551558971405,-0.04260452091693878,-0.7976018190383911
1701290243699233800,8.90223388671875,0.0723302885890007,-0.17078566551208496,-0.8875748515129089
1701290243709308700,8.91230859375,0.03306588530540466,-0.27064037322998047,-0.9106001257896423
1701290243719384600,8.922384521484375,-0.01979546621441841,-0.30044621229171753,-0.8753302693367004
1701290243729460700,8.932460693359374,-0.04852961003780365,-0.23233762383460999,-0.7906779646873474
1701290243739536000,8.942535888671875,-0.054765935987234116,-0.045445241034030914,-0.6829621195793152
1701290243749611800,8.95261181640625,-0.0730132907629013,0.19192951917648315,-0.5644302368164062
1701290243759686700,8.962686767578125,-0.1023687869310379,0.4049541652202606,-0.45651867985725403
1701290243769762800,8.9727626953125,-0.1188378855586052,0.5523298978805542,-0.36813703179359436
1701290243779838000,8.982837890625,-0.10322696715593338,0.6448662281036377,-0.2875063717365265
1701290243789913600,8.99291357421875,-0.0724218338727951,0.6652225852012634,-0.23448024690151215
1701290243799988700,9.00298876953125,-0.049900006502866745,0.617287814617157,-0.20852668583393097
1701290243810065000,9.01306494140625,-0.03685419633984566,0.5125270485877991,-0.22260095179080963
1701290243820139500,9.023139404296876,-0.03186982497572899,0.37474656105041504,-0.264960378408432
1701290243830215700,9.033215576171875,-0.027212172746658325,0.24582023918628693,-0.323464959859848
1701290243840290800,9.043290771484376,-0.03992024436593056,0.16464629769325256,-0.36215031147003174
1701290243850366700,9.05336669921875,-0.05403862148523331,0.14874817430973053,-0.37170109152793884
1701290243860442600,9.063442626953124,-0.0682697519659996,0.15422575175762177,-0.37688520550727844
1701290243870517800,9.073517822265625,-0.08945460617542267,0.1432744413614273,-0.4031997621059418
1701290243880593700,9.08359375,-0.10658512264490128,0.10604425519704819,-0.4492868185043335
1701290243890668500,9.09366845703125,-0.126952663064003,0.060019202530384064,-0.49702557921409607
1701290243900744700,9.10374462890625,-0.14712610840797424,0.003734891302883625,-0.5244425535202026
1701290243910819800,9.11381982421875,-0.1652241349220276,-0.05063331872224808,-0.5359199047088623
1701290243920895700,9.123895751953125,-0.17827042937278748,-0.07003604620695114,-0.5444813966751099
1701290243930970600,9.133970703125,-0.18092890083789825,-0.051228731870651245,-0.534016489982605
1701290243941046800,9.144046875,-0.18834687769412994,0.006107528693974018,-0.5124832391738892
1701290243951122000,9.154121826171876,-0.19932544231414795,0.0832856297492981,-0.4611481726169586
1701290243961197800,9.16419775390625,-0.21401037275791168,0.14555487036705017,-0.3869354724884033
1701290243971273700,9.174273681640624,-0.22735948860645294,0.1830349862575531,-0.3226371109485626
1701290243981348900,9.184348876953125,-0.22871823608875275,0.20555627346038818,-0.2816004455089569
1701290243991424800,9.1944248046875,-0.2199883759021759,0.2249852418899536,-0.2480183243751526
1701290244001499600,9.204499755859375,-0.20933173596858978,0.257457971572876,-0.195668026804924
1701290244011575800,9.214575927734375,-0.1990201324224472,0.30274438858032227,-0.11758721619844437
1701290244021650700,9.224650634765625,-0.1869802474975586,0.32629552483558655,-0.0473114550113678
1701290244031726800,9.234726806640625,-0.17610876262187958,0.3128981590270996,-0.012097080238163471
1701290244041801700,9.2448017578125,-0.179666206240654,0.2993336021900177,-0.019537687301635742
1701290244051877600,9.254877685546875,-0.18082088232040405,0.2999128997325897,-0.04977914318442345
1701290244061952800,9.264952880859376,-0.1784197837114334,0.266308069229126,-0.06524492055177689
1701290244072028700,9.275028564453125,-0.17856775224208832,0.18642564117908478,-0.06784483790397644
1701290244082104600,9.2851044921875,-0.18487544357776642,0.08284172415733337,-0.0845513790845871
1701290244092179700,9.2951796875,-0.178477942943573,0.004480792209506035,-0.12028635293245316
1701290244102255900,9.305255859375,-0.16863836348056793,-0.035596054047346115,-0.1857878714799881
1701290244112330800,9.315330810546875,-0.1598118245601654,-0.060871753841638565,-0.24770283699035645
1701290244122406700,9.32540673828125,-0.16018731892108917,-0.09673574566841125,-0.2769981324672699
1701290244132481800,9.335481689453125,-0.15807315707206726,-0.1397176831960678,-0.28263333439826965
1701290244142557700,9.3455576171875,-0.15843240916728973,-0.17130251228809357,-0.2912028729915619
1701290244152632800,9.3556328125,-0.16215553879737854,-0.15825442969799042,-0.306265264749527
1701290244162708700,9.365708740234375,-0.17089390754699707,-0.06980526447296143,-0.32022395730018616
1701290244172783900,9.375783935546876,-0.1847570836544037,0.04195329546928406,-0.2936061918735504
1701290244182859800,9.38585986328125,-0.19962337613105774,0.13924868404865265,-0.2270042598247528
1701290244192935200,9.39593505859375,-0.2132069617509842,0.23529627919197083,-0.15281523764133453
1701290244203010300,9.40601025390625,-0.23278918862342834,0.37843719124794006,-0.11560261249542236
1701290244213086500,9.41608642578125,-0.25916314125061035,0.5492451786994934,-0.11089006811380386
1701290244223161300,9.426161376953125,-0.2873343229293823,0.6850975751876831,-0.10106966644525528
1701290244233237200,9.4362373046875,-0.30984222888946533,0.7313271164894104,-0.05741075426340103
1701290244243312400,9.4463125,-0.32366642355918884,0.7354081273078918,0.012302546761929989
1701290244253388300,9.45638818359375,-0.31349441409111023,0.7546218633651733,0.06391766667366028
1701290244263463200,9.466463134765625,-0.27191048860549927,0.7654109001159668,0.09215196222066879
1701290244273539300,9.476539306640625,-0.1857382208108902,0.6696796417236328,0.12407125532627106
1701290244283614500,9.486614501953126,-0.108441561460495,0.4698382019996643,0.1756332367658615
1701290244293690000,9.496690185546875,-0.07224686443805695,0.31055939197540283,0.23523466289043427
1701290244303766300,9.506766357421874,-0.041860200464725494,0.32257717847824097,0.2853553891181946
1701290244313841400,9.51684130859375,0.04923439025878906,0.43234702944755554,0.34025058150291443
1701290244323917300,9.526917236328124,0.17389775812625885,0.5108159780502319,0.4297860562801361
1701290244333992200,9.5369921875,0.30506837368011475,0.6032008528709412,0.5700785517692566
1701290244344068400,9.547068359375,0.4306497573852539,0.6735447645187378,0.7432188987731934
1701290244354143500,9.5571435546875,0.5624810457229614,0.6090768575668335,0.9266301989555359
1701290244364219400,9.567219482421875,0.6764965653419495,0.3973555564880371,1.1194422245025635
1701290244374294300,9.577294189453125,0.7840943932533264,0.1777128428220749,1.3228037357330322
1701290244384370400,9.587370361328125,0.8746474981307983,0.06635436415672302,1.5225772857666016
1701290244394445300,9.5974453125,0.9190726280212402,0.06227988004684448,1.7081866264343262
1701290244404521200,9.607521240234375,0.9123180508613586,0.1440032422542572,1.868458867073059
1701290244414597400,9.617597412109374,0.8994241952896118,0.24383702874183655,1.9715979099273682
1701290244424672300,9.62767236328125,0.9102150201797485,0.3240101635456085,2.0228750705718994
1701290244434748400,9.63774853515625,0.9359332919120789,0.40364935994148254,2.034924268722534
1701290244444823300,9.6478232421875,0.9754186272621155,0.4560939371585846,2.0100209712982178
1701290244454899200,9.657899169921874,1.0230448246002197,0.3688242435455322,1.8818063735961914
1701290244464974300,9.667974365234375,1.031551480293274,0.27174803614616394,1.643279790878296
1701290244475050200,9.67805029296875,0.984728217124939,0.2527965009212494,1.3292367458343506
1701290244485125400,9.68812548828125,0.9135360717773438,0.23189467191696167,1.0297664403915405
1701290244495201300,9.698201171875,0.8391779065132141,0.2071576863527298,0.8251344561576843
1701290244505276200,9.708276123046875,0.7684581875801086,0.17285270988941193,0.7198985815048218
1701290244515352300,9.718352294921875,0.7307485938072205,0.0690373033285141,0.6706581711769104
1701290244525427500,9.728427490234376,0.7117516994476318,-0.03293566405773163,0.6882840394973755
1701290244535503400,9.73850341796875,0.6786367893218994,-0.0873030573129654,0.77720046043396
1701290244545579500,9.74857958984375,0.6531303524971008,-0.16867727041244507,0.9073659181594849
1701290244555654400,9.758654296875,0.6201598644256592,-0.27660053968429565,1.00538170337677
1701290244565730300,9.768730224609374,0.5655972957611084,-0.3506348133087158,0.9857707619667053
1701290244575805400,9.778805419921875,0.5163892507553101,-0.39532291889190674,0.8147342801094055
1701290244585881300,9.78888134765625,0.48878586292266846,-0.4556853473186493,0.5568057894706726
1701290244595956200,9.798956298828125,0.4787696599960327,-0.5326350331306458,0.30436602234840393
1701290244606032400,9.809032470703125,0.4678296744823456,-0.5970563888549805,0.12482421100139618
1701290244616107300,9.819107177734375,0.425060898065567,-0.5863561630249023,0.02278248593211174
1701290244626183200,9.82918310546875,0.38069263100624084,-0.5165286064147949,-0.020394545048475266
1701290244636259300,9.83925927734375,0.3529380261898041,-0.428649365901947,-0.004683220759034157
1701290244646334500,9.84933447265625,0.33720484375953674,-0.363719642162323,0.017294783145189285
1701290244656410000,9.85941015625,0.32831835746765137,-0.3503493666648865,0.03009759820997715
1701290244666485200,9.8694853515625,0.31397536396980286,-0.3955325484275818,0.016690712422132492
1701290244676561400,9.8795615234375,0.29144781827926636,-0.49312031269073486,-0.027325140312314034
1701290244686636300,9.88963623046875,0.25568872690200806,-0.6155301332473755,-0.08983644843101501
1701290244696712200,9.899712158203124,0.21443626284599304,-0.7165191173553467,-0.1462850570678711
1701290244706787300,9.909787353515625,0.17862367630004883,-0.8005290627479553,-0.1752040535211563
1701290244716863500,9.919863525390625,0.14177699387073517,-0.8721085786819458,-0.1745028793811798
1701290244726938400,9.9299384765625,0.11910390853881836,-0.9255161285400391,-0.1655501276254654
1701290244737014300,9.94001416015625,0.10307718068361282,-0.9389550089836121,-0.15636028349399567
1701290244747090400,9.95009033203125,0.08833259344100952,-0.8788970112800598,-0.15512484312057495
1701290244757165300,9.960165283203125,0.07534370571374893,-0.7323952317237854,-0.15479937195777893
1701290244767241200,9.9702412109375,0.05084315687417984,-0.5146727561950684,-0.14310169219970703
1701290244777316400,9.98031640625,0.028487429022789,-0.3046548366546631,-0.11380258202552795
1701290244787392300,9.990392333984374,-0.0038550652097910643,-0.1380605250597,-0.06799487769603729
1701290244797467100,10.000467041015625,-0.049489572644233704,-0.021618584170937538,-0.04080755636096001
1701290244807543300,10.010543212890624,-0.11011244356632233,0.061803072690963745,-0.035909201949834824
1701290244817618400,10.020618408203125,-0.16676495969295502,0.13568441569805145,-0.04982127249240875
1701290244827694300,10.0306943359375,-0.2092607617378235,0.18711379170417786,-0.06258633732795715
1701290244837769200,10.040769287109375,-0.23608310520648956,0.19607992470264435,-0.07393524795770645
1701290244847845400,10.050845458984375,-0.2572419345378876,0.16162902116775513,-0.08825906366109848
1701290244857920500,10.06092041015625,-0.2735138535499573,0.10999097675085068,-0.10686331987380981
1701290244867996200,10.07099609375,-0.2942582964897156,0.06874872744083405,-0.1313854455947876
1701290244878072300,10.081072265625,-0.308569073677063,0.04125598445534706,-0.1511060893535614
1701290244888147500,10.0911474609375,-0.31408607959747314,0.03113943338394165,-0.16449540853500366
1701290244898223400,10.101223388671874,-0.3088953495025635,0.02772490121424198,-0.17023617029190063
1701290244908298200,10.11129833984375,-0.3044753074645996,0.0024861255660653114,-0.1765744984149933
1701290244918374400,10.12137451171875,-0.28555718064308167,-0.049252379685640335,-0.19392572343349457
1701290244928449300,10.13144921875,-0.2496684193611145,-0.09787264466285706,-0.21796955168247223
1701290244938525400,10.141525390625,-0.2033945471048355,-0.1309007853269577,-0.2415316253900528
1701290244948600300,10.151600341796875,-0.15953655540943146,-0.1449257880449295,-0.2729633152484894
1701290244958676200,10.16167626953125,-0.12484526634216309,-0.1551511138677597,-0.3111511468887329
1701290244968752400,10.17175244140625,-0.09392276406288147,-0.18088656663894653,-0.3473299443721771
1701290244978827300,10.1818271484375,-0.05983228608965874,-0.23129983246326447,-0.35928604006767273
1701290244988903200,10.191903076171876,-0.02446337416768074,-0.2837553322315216,-0.36092469096183777
1701290244998978300,10.201978271484375,0.01451180875301361,-0.30380597710609436,-0.36962905526161194
1701290245009054500,10.212054443359374,0.03898626193404198,-0.28536197543144226,-0.38949358463287354
1701290245019129300,10.22212939453125,0.05526179447770119,-0.252983421087265,-0.41002747416496277
1701290245029205200,10.232205322265624,0.05942830815911293,-0.21640384197235107,-0.4014299809932709
1701290245039280400,10.2422802734375,0.05626292526721954,-0.1896177977323532,-0.36403894424438477
1701290245049356300,10.252356201171875,0.03790229558944702,-0.17739629745483398,-0.32537543773651123
1701290245059431400,10.262431396484375,0.00118654512334615,-0.16070684790611267,-0.3017215430736542
1701290245069507300,10.27250732421875,-0.03438662737607956,-0.12243109941482544,-0.2802383601665497
1701290245079583500,10.28258349609375,-0.0857187956571579,-0.07824739068746567,-0.26246654987335205
1701290245089658400,10.292658447265625,-0.16932927072048187,-0.03456862270832062,-0.2711452543735504
1701290245099734300,10.302734375,-0.2576896846294403,-0.006820778362452984,-0.29501578211784363
1701290245109809400,10.312809326171875,-0.3092394173145294,0.04620755463838577,-0.315123975276947
1701290245119885300,10.32288525390625,-0.32187047600746155,0.1122700646519661,-0.3229827284812927
1701290245129960200,10.332960205078125,-0.32602980732917786,0.14141809940338135,-0.3512231409549713
1701290245140036400,10.343036376953124,-0.3393515348434448,0.07759179174900055,-0.43324223160743713
1701290245150111500,10.353111572265625,-0.34552285075187683,-0.07918024063110352,-0.5221297740936279
1701290245160187100,10.363187255859375,-0.33333224058151245,-0.3157203197479248,-0.5405474305152893
1701290245170262300,10.37326220703125,-0.3099188804626465,-0.5403046607971191,-0.44666168093681335
1701290245180338400,10.38333837890625,-0.29977911710739136,-0.645516574382782,-0.3113158047199249
1701290245190414300,10.393414306640626,-0.2827031910419464,-0.5822808742523193,-0.2171696126461029
1701290245200489500,10.403489501953125,-0.2470700740814209,-0.3716444671154022,-0.12497676908969879
1701290245210565400,10.4135654296875,-0.17349493503570557,-0.07265882939100266,-0.008672798052430153
1701290245220640500,10.423640625,-0.08509111404418945,0.28822264075279236,0.0957796648144722
1701290245230716400,10.43371630859375,-0.04197587072849274,0.5915513634681702,0.17757892608642578
1701290245240791600,10.44379150390625,-0.041576970368623734,0.7287973761558533,0.22098827362060547
1701290245250867500,10.453867431640624,-0.06100872531533241,0.6898638010025024,0.18057428300380707
1701290245260942300,10.4639423828125,-0.09860457479953766,0.5879833102226257,-0.007055115420371294
1701290245271018500,10.4740185546875,-0.15245501697063446,0.4924032688140869,-0.33317676186561584
1701290245281094700,10.4840947265625,-0.2093304693698883,0.3324388861656189,-0.6934242248535156
1701290245291169300,10.494169189453125,-0.2428484857082367,0.12452378869056702,-0.9558438658714294
1701290245301245400,10.504245361328126,-0.2959182560443878,-0.10200610011816025,-1.017909049987793
1701290245311320600,10.514320556640625,-0.3694923520088196,-0.33792275190353394,-0.8788947463035583
1701290245321396200,10.524396240234376,-0.37695255875587463,-0.4892527163028717,-0.6410587430000305
1701290245331471400,10.534471435546875,-0.2901636064052582,-0.31125712394714355,-0.3845768868923187
1701290245341547500,10.544547607421874,-0.16657432913780212,0.1704309731721878,-0.2527267336845398
1701290245351622400,10.554622314453125,-0.07727694511413574,0.4510573446750641,-0.3576238453388214
1701290245361698300,10.5646982421875,-0.028517194092273712,0.25894632935523987,-0.5606777667999268
1701290245371773400,10.5747734375,-0.04144018143415451,-0.2861979603767395,-0.7409197092056274
1701290245381849600,10.584849609375,-0.04853563755750656,-0.8792466521263123,-0.8572266101837158
1701290245391925200,10.59492529296875,-0.03246213123202324,-1.2906012535095215,-0.9174529314041138
1701290245402000400,10.60500048828125,-0.03462594002485275,-1.3763388395309448,-0.9474930167198181
1701290245412076500,10.61507666015625,-0.05199187994003296,-1.1929975748062134,-0.941758930683136
1701290245422151400,10.6251513671875,-0.08115394413471222,-0.902057945728302,-0.8794552683830261
1701290245432227300,10.635227294921876,-0.11451509594917297,-0.5308055877685547,-0.7581434845924377
1701290245442302500,10.645302490234375,-0.11426147073507309,-0.11085446923971176,-0.5821618437767029
1701290245452378600,10.655378662109374,-0.05875319987535477,0.28758877515792847,-0.40609702467918396
1701290245462453200,10.665453369140625,-0.005283555015921593,0.6310032606124878,-0.2730952203273773
1701290245472529400,10.675529296875,0.03903863579034805,0.8411716818809509,-0.19001765549182892
1701290245482604500,10.6856044921875,0.06489960104227066,0.8643260598182678,-0.14589674770832062
1701290245492680400,10.695680419921874,0.07055483013391495,0.7359148263931274,-0.1278519630432129
1701290245502756400,10.70575634765625,0.06625334918498993,0.520718514919281,-0.14296208322048187
1701290245512831500,10.71583154296875,0.07781387120485306,0.34751397371292114,-0.1678842157125473
1701290245522907400,10.725907470703126,0.097170889377594,0.2412489354610443,-0.1738026887178421
1701290245532982300,10.735982177734375,0.11468330770730972,0.14974884688854218,-0.17235925793647766
1701290245543058400,10.746058349609376,0.100838303565979,0.08243043720722198,-0.1793530434370041
1701290245553133600,10.756133544921875,0.07217656075954437,0.05843748524785042,-0.1906355321407318
1701290245563209500,10.76620947265625,0.03361155465245247,0.08208635449409485,-0.2066250443458557
1701290245573284400,10.776284423828125,-0.0029043792746961117,0.12555980682373047,-0.21408909559249878
1701290245583360500,10.786360595703124,-0.034421611577272415,0.16087894141674042,-0.21801966428756714
1701290245593435600,10.796435546875,-0.06111447513103485,0.1802225410938263,-0.22291482985019684
1701290245603511300,10.80651123046875,-0.08948264271020889,0.19178089499473572,-0.23962411284446716
1701290245613587500,10.81658740234375,-0.11084198951721191,0.20050621032714844,-0.2608889043331146
1701290245623662600,10.82666259765625,-0.13764560222625732,0.19278176128864288,-0.279057115316391
1701290245633738500,10.836738525390626,-0.15733088552951813,0.1747034192085266,-0.2999573349952698
1701290245643813400,10.8468134765625,-0.17974087595939636,0.147507905960083,-0.319198876619339
1701290245653889500,10.8568896484375,-0.2140146940946579,0.12113300710916519,-0.34198543429374695
1701290245663964400,10.86696435546875,-0.2625240981578827,0.11907260864973068,-0.36014074087142944
1701290245674040600,10.87704052734375,-0.30455997586250305,0.12676915526390076,-0.3783216178417206
1701290245684115500,10.887115478515625,-0.3303288221359253,0.12827453017234802,-0.38290518522262573
1701290245694191400,10.89719140625,-0.33401408791542053,0.11332540959119797,-0.3816068768501282
1701290245704266500,10.9072666015625,-0.33648160099983215,0.10290546715259552,-0.3874206244945526
1701290245714342400,10.91734228515625,-0.3526211678981781,0.11044301092624664,-0.3924902081489563
1701290245724418300,10.927418212890625,-0.3746170699596405,0.13896150887012482,-0.3944138288497925
1701290245734493400,10.937493408203125,-0.3801724314689636,0.16662190854549408,-0.3928960859775543
1701290245744569600,10.947569580078126,-0.38177764415740967,0.17116332054138184,-0.3850248157978058
1701290245754644500,10.95764453125,-0.3815360963344574,0.15169614553451538,-0.37314367294311523
1701290245764720400,10.967720458984376,-0.38180920481681824,0.1434689462184906,-0.3645913302898407
1701290245774795500,10.97779541015625,-0.3883717656135559,0.1547069549560547,-0.36077821254730225
1701290245784871400,10.987871337890626,-0.391825407743454,0.1635705828666687,-0.3555004894733429
1701290245794946600,10.997946533203125,-0.3823818266391754,0.14323627948760986,-0.35165300965309143
1701290245805022500,11.0080224609375,-0.36602815985679626,0.11195406317710876,-0.34687140583992004
1701290245815097300,11.018097412109375,-0.34921616315841675,0.08011464774608612,-0.35437512397766113
1701290245825173500,11.028173583984374,-0.3454575836658478,0.051624249666929245,-0.3730761706829071
1701290245835249400,11.03824951171875,-0.35483911633491516,0.024904485791921616,-0.3820669949054718
1701290245845324500,11.048324462890625,-0.34924203157424927,0.006937808357179165,-0.378201961517334
1701290245855400400,11.058400390625,-0.329275518655777,0.00040134601294994354,-0.3528401255607605
1701290245865475300,11.068475341796875,-0.30942851305007935,0.01468078512698412,-0.32235896587371826
1701290245875551500,11.078551513671876,-0.28822362422943115,0.05162495747208595,-0.3004209101200104
1701290245885626600,11.088626708984375,-0.2750479280948639,0.11076363921165466,-0.28823524713516235
1701290245895702300,11.098702392578126,-0.2594585716724396,0.19418077170848846,-0.27916160225868225
1701290245905777400,11.10877734375,-0.2377454787492752,0.2758592963218689,-0.24639777839183807
1701290245915853600,11.118853515625,-0.21992705762386322,0.35470589995384216,-0.1983301192522049
1701290245925929500,11.128929443359375,-0.2041366696357727,0.4447648525238037,-0.13320592045783997
1701290245936004400,11.13900439453125,-0.17705471813678741,0.559210479259491,-0.06284281611442566
1701290245946080500,11.14908056640625,-0.17730602622032166,0.6501355171203613,0.0008530904888175428
1701290245956155600,11.15915576171875,-0.20034876465797424,0.6787173748016357,0.06998235732316971
1701290245966231300,11.169231201171876,-0.2342694103717804,0.6491861939430237,0.11860881745815277
1701290245976306400,11.179306396484375,-0.2611404359340668,0.6049870252609253,0.146441251039505
1701290245986382600,11.189382568359376,-0.2566303610801697,0.5703763365745544,0.15776686370372772
1701290245996457200,11.199457275390625,-0.20450113713741302,0.5188795924186707,0.15814583003520966
1701290246006533400,11.209533447265626,-0.1479262411594391,0.42292678356170654,0.1382795125246048
1701290246016608500,11.2196083984375,-0.1368328481912613,0.2984407842159271,0.0993179976940155
1701290246026684400,11.229684326171874,-0.15008781850337982,0.21154144406318665,0.052892036736011505
1701290246036760300,11.23976025390625,-0.0953952819108963,0.19507351517677307,0.025588246062397957
1701290246046835500,11.24983544921875,0.0006279127555899322,0.20703354477882385,0.05639638379216194
1701290246056911400,11.259911376953125,0.09484335780143738,0.2260919213294983,0.13729442656040192
1701290246066986500,11.269986572265625,0.17491324245929718,0.23425137996673584,0.24925485253334045
1701290246077062400,11.2800625,0.23181940615177155,0.17499737441539764,0.3783470392227173
1701290246087137500,11.290137451171875,0.2794328033924103,0.08882801234722137,0.49715888500213623
1701290246097213400,11.30021337890625,0.3501136302947998,0.0392942801117897,0.6123185157775879
1701290246107288300,11.310288330078125,0.42526522278785706,0.06426063925027847,0.7466375231742859
1701290246117364500,11.320364501953126,0.5046399235725403,0.15088608860969543,0.9302627444267273
1701290246127439600,11.330439697265625,0.5689440965652466,0.259038507938385,1.1400372982025146
1701290246137515500,11.340515625,0.6255099177360535,0.3618450462818146,1.3391594886779785
1701290246147591400,11.35059130859375,0.6883392930030823,0.4831266403198242,1.4936349391937256
1701290246157666600,11.36066650390625,0.7657909393310547,0.6082221865653992,1.6049246788024902
1701290246167742500,11.370742431640625,0.8384118676185608,0.6886782050132751,1.7063319683074951
1701290246177817300,11.3808173828125,0.9150847792625427,0.6883288025856018,1.7915315628051758
1701290246187893500,11.3908935546875,0.9760974049568176,0.5858509540557861,1.8208837509155273
1701290246197969200,11.40096923828125,1.0160174369812012,0.39737021923065186,1.75299072265625
1701290246208045300,11.41104541015625,1.0530877113342285,0.22430194914340973,1.5841530561447144
1701290246218120200,11.4211201171875,1.0946404933929443,0.12481503933668137,1.377049446105957
1701290246228196000,11.431196044921874,1.1134706735610962,0.04762202501296997,1.1965866088867188
1701290246238271200,11.441271240234375,1.1188023090362549,0.0024127373471856117,1.0673197507858276
1701290246248347400,11.451347412109374,1.109923005104065,0.0031455475836992264,0.9683166742324829
1701290246258423000,11.461423095703125,1.0905182361602783,-0.01235884428024292,0.8806621432304382
1701290246268498200,11.471498291015624,1.0431119203567505,-0.09075047075748444,0.7862982153892517
1701290246278574300,11.48157421875,0.951025664806366,-0.1537608653306961,0.7000317573547363
1701290246288649000,11.49164892578125,0.852514922618866,-0.15181665122509003,0.6389817595481873
1701290246298725000,11.50172509765625,0.7713862061500549,-0.12369952350854874,0.6108755469322205
1701290246308800300,11.51180029296875,0.723594605922699,-0.17114132642745972,0.578100323677063
1701290246318876200,11.521876220703126,0.6896084547042847,-0.2814542353153229,0.5441452860832214
1701290246328951000,11.531950927734375,0.6575146913528442,-0.40499648451805115,0.5235913395881653
1701290246339027200,11.542027099609374,0.6197500228881836,-0.4897063076496124,0.4997381865978241
1701290246349103000,11.55210302734375,0.5882458686828613,-0.5257577300071716,0.4568439722061157
1701290246359178200,11.56217822265625,0.5736775398254395,-0.4759669899940491,0.3807614743709564
1701290246369254100,11.572254150390625,0.5732160806655884,-0.3757656514644623,0.28790009021759033
1701290246379329300,11.582329345703124,0.5582554936408997,-0.2750787138938904,0.21242690086364746
1701290246389405200,11.5924052734375,0.5455341339111328,-0.2934889793395996,0.18629111349582672
1701290246399480000,11.60247998046875,0.5399326682090759,-0.4166620373725891,0.18687674403190613
1701290246409556200,11.61255615234375,0.5310535430908203,-0.5714093446731567,0.1942051351070404
1701290246419631400,11.62263134765625,0.5014479756355286,-0.7007007598876953,0.18196578323841095
1701290246429707300,11.632707275390626,0.4669512212276459,-0.8018065690994263,0.13624019920825958
1701290246439782100,11.6427822265625,0.43181371688842773,-0.8728253245353699,0.07580375671386719
1701290246449858300,11.6528583984375,0.403539776802063,-0.9141842722892761,0.0210728757083416
1701290246459934200,11.662934326171875,0.3665274381637573,-0.9101762175559998,-0.004903865046799183
1701290246470009000,11.673009033203124,0.33179453015327454,-0.8776773810386658,-0.01085069589316845
1701290246480085200,11.683085205078125,0.3003537952899933,-0.8231601119041443,0.007039088290184736
1701290246490160000,11.69316015625,0.26273784041404724,-0.7511486411094666,0.030163710936903954
1701290246500236300,11.703236328125,0.22176536917686462,-0.657272458076477,0.04734083637595177
1701290246510311200,11.713311279296875,0.1740500032901764,-0.5423537492752075,0.05282513424754143
1701290246520387000,11.723386962890626,0.12094791233539581,-0.4138695299625397,0.048841048032045364
1701290246530462200,11.733462158203125,0.058853548020124435,-0.2856321334838867,0.03516276180744171
1701290246540538400,11.743538330078126,-0.01771446317434311,-0.18629410862922668,0.014393037185072899
1701290246550613200,11.75361328125,-0.10143131762742996,-0.12496188282966614,-0.009044083766639233
1701290246560689200,11.763689208984376,-0.1861904114484787,-0.09947197139263153,-0.041819341480731964
1701290246570765300,11.773765380859375,-0.2587346136569977,-0.09387528151273727,-0.08354052156209946
1701290246580840200,11.783840087890624,-0.31549936532974243,-0.09991959482431412,-0.1280083805322647
1701290246590916000,11.793916015625,-0.36090704798698425,-0.12372057139873505,-0.1677776575088501
1701290246600991200,11.8039912109375,-0.3920474052429199,-0.14431479573249817,-0.20147515833377838
1701290246611067400,11.8140673828125,-0.4161163866519928,-0.15105275809764862,-0.23299795389175415
1701290246621142300,11.824142333984375,-0.44261378049850464,-0.14129281044006348,-0.27173495292663574
1701290246631218200,11.83421826171875,-0.4737663269042969,-0.12153169512748718,-0.3136971890926361
1701290246641293300,11.844293212890625,-0.4923139214515686,-0.09968205541372299,-0.3565639555454254
1701290246651369200,11.854369140625,-0.49175235629081726,-0.1074150949716568,-0.3864838778972626
1701290246661444000,11.864444091796875,-0.47086384892463684,-0.1813143491744995,-0.3893539607524872
1701290246671520300,11.874520263671876,-0.4345337152481079,-0.30151835083961487,-0.36693039536476135
1701290246681596200,11.88459619140625,-0.37841692566871643,-0.40771669149398804,-0.3439672887325287
1701290246691671000,11.894671142578124,-0.28791555762290955,-0.46499431133270264,-0.3347513973712921
1701290246701747200,11.904747314453125,-0.18918552994728088,-0.47110864520072937,-0.3350382447242737
1701290246711822300,11.914822265625,-0.09032468497753143,-0.4427212178707123,-0.3517507314682007
1701290246721898000,11.92489794921875,0.01002268586307764,-0.42957210540771484,-0.3557817041873932
1701290246731973000,11.93497314453125,0.10773652046918869,-0.43953242897987366,-0.3306370973587036
1701290246742049300,11.94504931640625,0.18451333045959473,-0.43809565901756287,-0.2714105248451233
1701290246752124400,11.95512451171875,0.2288016378879547,-0.4110059440135956,-0.1928187757730484
1701290246762200000,11.965199951171876,0.2455017864704132,-0.4109995663166046,-0.10962322354316711
1701290246772276200,11.975276123046875,0.2319711297750473,-0.358363538980484,-0.04406337812542915
1701290246782351400,11.985351318359376,0.20773503184318542,-0.1915290206670761,-0.029650086537003517
1701290246792427300,11.99542724609375,0.16517974436283112,0.06514723598957062,-0.09018738567829132
1701290246802502100,12.005502197265624,0.0687866359949112,0.3211215138435364,-0.20529107749462128
1701290246812578300,12.015578369140625,-0.1101202741265297,0.5273804664611816,-0.3470112681388855
1701290246822653200,12.025653076171874,-0.35331055521965027,0.5986964702606201,-0.508953332901001
1701290246832729000,12.03572900390625,-0.5511771440505981,0.574402928352356,-0.6480563879013062
1701290246842804200,12.04580419921875,-0.641582190990448,0.47435253858566284,-0.7049508094787598
1701290246852880100,12.055880126953125,-0.657364547252655,0.24141035974025726,-0.7209102511405945
1701290246862955000,12.065955078125,-0.6485523581504822,-0.10852155089378357,-0.7255329489707947
1701290246873031200,12.07603125,-0.6655424237251282,-0.5148212909698486,-0.6839088797569275
1701290246883107000,12.086107177734375,-0.6123409867286682,-0.9065017104148865,-0.5662053823471069
1701290246893182200,12.09618212890625,-0.4555606245994568,-1.1746251583099365,-0.3871062099933624
1701290246903258000,12.106258056640625,-0.25987446308135986,-1.0838558673858643,-0.34089797735214233
1701290246913333200,12.116333251953124,-0.12542271614074707,-0.5628398656845093,-0.37108752131462097
1701290246923409200,12.1264091796875,-0.07164044678211212,0.12782806158065796,-0.29853102564811707
1701290246933484000,12.136484130859374,-0.06705085933208466,0.7000757455825806,-0.12921084463596344
1701290246943560200,12.146560302734375,-0.028973251581192017,1.0559017658233643,0.07808376103639603
1701290246953635300,12.15663525390625,0.029231544584035873,1.297265648841858,0.3007858693599701
1701290246963711200,12.166711181640625,0.049825236201286316,1.4627076387405396,0.5168771743774414
1701290246973786000,12.1767861328125,0.028987806290388107,1.4128870964050293,0.5833415389060974
1701290246983862300,12.1868623046875,-0.04205015301704407,1.046106219291687,0.33510780334472656
1701290246993938200,12.196938232421875,-0.12859131395816803,0.44957879185676575,-0.21515657007694244
1701290247004013300,12.207013427734376,-0.2170625925064087,-0.15993061661720276,-0.8119901418685913
1701290247014089200,12.217089111328125,-0.31572335958480835,-0.6310610175132751,-1.1732749938964844
1701290247024164000,12.2271640625,-0.4316409230232239,-0.9807899594306946,-1.2171801328659058
1701290247034240300,12.237240234375,-0.4796963930130005,-1.317886471748352,-1.0476808547973633
1701290247044315100,12.247315185546874,-0.4192005395889282,-1.5663604736328125,-0.7974897027015686
1701290247054391000,12.25739111328125,-0.26507139205932617,-1.3562461137771606,-0.48956456780433655
1701290247064466200,12.267466064453124,-0.11235109716653824,-0.495419979095459,-0.35705527663230896
1701290247074542300,12.277542236328125,-0.014981062151491642,0.09001057595014572,-0.5030074119567871
1701290247084618000,12.287617919921875,0.031663939356803894,0.08342643827199936,-0.7440224289894104
1701290247094693000,12.297693115234376,0.012164102867245674,-0.24510858952999115,-0.9229338765144348
1701290247104769300,12.307769287109375,0.016940217465162277,-0.5704222321510315,-1.0143219232559204
1701290247114844200,12.31784423828125,0.01151577290147543,-0.6649852991104126,-1.0191746950149536
1701290247124920000,12.327920166015625,-0.03953622654080391,-0.5589030981063843,-0.9703229069709778
